{"resourceType":"DocumentReference","id":"genomicVCFfile-cnv","text":{"status":"generated","div":"\u003cdiv xmlns\u003d\"http://www.w3.org/1999/xhtml\"\u003e\u003cp\u003e\u003cb\u003eGenerated Narrative\u003c/b\u003e\u003c/p\u003e\u003cdiv style\u003d\"display: inline-block; background-color: #d9e0e7; padding: 6px; margin: 4px; border: 1px solid #8da1b4; border-radius: 5px; line-height: 60%\"\u003e\u003cp style\u003d\"margin-bottom: 0px\"\u003eResource \u0026quot;genomicVCFfile_cnv\u0026quot; \u003c/p\u003e\u003c/div\u003e\u003cp\u003e\u003cb\u003eidentifier\u003c/b\u003e: id: 11121\u003c/p\u003e\u003cp\u003e\u003cb\u003estatus\u003c/b\u003e: current\u003c/p\u003e\u003cp\u003e\u003cb\u003edocStatus\u003c/b\u003e: preliminary\u003c/p\u003e\u003cp\u003e\u003cb\u003edescription\u003c/b\u003e: A sample Document Reference instance representing a VCF file that may be used as input or output of a genomic analysis pipeline.\u003c/p\u003e\u003cp\u003e\u003cb\u003esecurityLabel\u003c/b\u003e: Restricted \u003cspan style\u003d\"background: LightGoldenRodYellow; margin: 4px; border: 1px solid khaki\"\u003e (\u003ca href\u003d\"http://terminology.hl7.org/3.1.0/CodeSystem-v3-Confidentiality.html\"\u003eConfidentiality\u003c/a\u003e#R)\u003c/span\u003e\u003c/p\u003e\u003cblockquote\u003e\u003cp\u003e\u003cb\u003econtent\u003c/b\u003e\u003c/p\u003e\u003c/blockquote\u003e\u003c/div\u003e"},"identifier":[{"system":"http://www.somesystemabc.net/identifiers/files","value":"11121"}],"status":"current","docStatus":"preliminary","description":"genomicVCFfile_cnv: A sample Document Reference instance representing a VCF file that may be used as input or output of a genomic analysis pipeline.","securityLabel":[{"coding":[{"system":"http://terminology.hl7.org/CodeSystem/v3-Confidentiality","code":"R","display":"Restricted"}]}],"content":[{"attachment":{"url":"https://chat.fhir.org/user_uploads/10155/dxn3s6R1Y-Cv0h-1bTCu-JvY/genomicVCFFile_cnv.vcf","title":"genomicVCFfile_cnv","creation":"2019-03-01T01:02:01+01:00"}}]}
{"resourceType":"DocumentReference","id":"genomicVCFfile-simple","text":{"status":"generated","div":"\u003cdiv xmlns\u003d\"http://www.w3.org/1999/xhtml\"\u003e\u003cp\u003e\u003cb\u003eGenerated Narrative\u003c/b\u003e\u003c/p\u003e\u003cdiv style\u003d\"display: inline-block; background-color: #d9e0e7; padding: 6px; margin: 4px; border: 1px solid #8da1b4; border-radius: 5px; line-height: 60%\"\u003e\u003cp style\u003d\"margin-bottom: 0px\"\u003eResource \u0026quot;genomicVCFfile_simple\u0026quot; \u003c/p\u003e\u003c/div\u003e\u003cp\u003e\u003cb\u003eidentifier\u003c/b\u003e: id: 11119\u003c/p\u003e\u003cp\u003e\u003cb\u003estatus\u003c/b\u003e: current\u003c/p\u003e\u003cp\u003e\u003cb\u003edocStatus\u003c/b\u003e: preliminary\u003c/p\u003e\u003cp\u003e\u003cb\u003edescription\u003c/b\u003e: A sample Document Reference instance representing a VCF file that may be used as input or output of a genomic analysis pipeline.\u003c/p\u003e\u003cp\u003e\u003cb\u003esecurityLabel\u003c/b\u003e: Restricted \u003cspan style\u003d\"background: LightGoldenRodYellow; margin: 4px; border: 1px solid khaki\"\u003e (\u003ca href\u003d\"http://terminology.hl7.org/3.1.0/CodeSystem-v3-Confidentiality.html\"\u003eConfidentiality\u003c/a\u003e#R)\u003c/span\u003e\u003c/p\u003e\u003cblockquote\u003e\u003cp\u003e\u003cb\u003econtent\u003c/b\u003e\u003c/p\u003e\u003c/blockquote\u003e\u003c/div\u003e"},"identifier":[{"system":"http://www.somesystemabc.net/identifiers/files","value":"11119"}],"status":"current","docStatus":"preliminary","description":"genomicVCFfile_simple: A sample Document Reference instance representing a VCF file that may be used as input or output of a genomic analysis pipeline.","securityLabel":[{"coding":[{"system":"http://terminology.hl7.org/CodeSystem/v3-Confidentiality","code":"R","display":"Restricted"}]}],"content":[{"attachment":{"url":"https://chat.fhir.org/user_uploads/10155/gdL90-np7lJjGwUxeARapUHB/genomicVCFFile_simple.vcf","title":"genomicVCFfile_simple","creation":"2019-03-01T01:02:01+01:00"}}]}
{"resourceType":"DocumentReference","id":"genomicFileGroupAsSubject","text":{"status":"generated","div":"\u003cdiv xmlns\u003d\"http://www.w3.org/1999/xhtml\"\u003e\u003cp\u003e\u003cb\u003eGenerated Narrative\u003c/b\u003e\u003c/p\u003e\u003cdiv style\u003d\"display: inline-block; background-color: #d9e0e7; padding: 6px; margin: 4px; border: 1px solid #8da1b4; border-radius: 5px; line-height: 60%\"\u003e\u003cp style\u003d\"margin-bottom: 0px\"\u003eResource \u0026quot;genomicFile4\u0026quot; \u003c/p\u003e\u003c/div\u003e\u003cp\u003e\u003cb\u003eidentifier\u003c/b\u003e: id: 11114\u003c/p\u003e\u003cp\u003e\u003cb\u003estatus\u003c/b\u003e: current\u003c/p\u003e\u003cp\u003e\u003cb\u003edocStatus\u003c/b\u003e: preliminary\u003c/p\u003e\u003cp\u003e\u003cb\u003esubject\u003c/b\u003e: \u003ca href\u003d\"Patient-denovoChild.html\"\u003ePatient/denovoChild: Child Junior Doe\u003c/a\u003e \u0026quot; DOE\u0026quot;\u003c/p\u003e\u003cp\u003e\u003cb\u003edescription\u003c/b\u003e: A sample Document Reference instance representing a generic genomic file that may ber used as input or output of a genomic analysis pipeline.\u003c/p\u003e\u003cp\u003e\u003cb\u003esecurityLabel\u003c/b\u003e: Restricted \u003cspan style\u003d\"background: LightGoldenRodYellow; margin: 4px; border: 1px solid khaki\"\u003e (\u003ca href\u003d\"http://terminology.hl7.org/3.1.0/CodeSystem-v3-Confidentiality.html\"\u003eConfidentiality\u003c/a\u003e#R)\u003c/span\u003e\u003c/p\u003e\u003cblockquote\u003e\u003cp\u003e\u003cb\u003econtent\u003c/b\u003e\u003c/p\u003e\u003c/blockquote\u003e\u003c/div\u003e"},"identifier":[{"system":"http://www.somesystemabc.net/identifiers/files","value":"11115"}],"status":"current","docStatus":"preliminary","subject":{"reference":"Group/groupDenovoFamily","display":"Denovo mutation study members"},"description":"Combined VCF file of a Proband and Parents that may be used as input or output of a genomic analysis pipeline.","securityLabel":[{"coding":[{"system":"http://terminology.hl7.org/CodeSystem/v3-Confidentiality","code":"R","display":"Restricted"}]}],"content":[{"attachment":{"url":"http://www.somesystemabc.net/identifiers/files/11115","title":"Combined VCF File of a Proband and Parents","creation":"2021-01-01T01:02:01+01:00"}}]}
{"resourceType":"DocumentReference","id":"genomicFile4","text":{"status":"generated","div":"\u003cdiv xmlns\u003d\"http://www.w3.org/1999/xhtml\"\u003e\u003cp\u003e\u003cb\u003eGenerated Narrative\u003c/b\u003e\u003c/p\u003e\u003cdiv style\u003d\"display: inline-block; background-color: #d9e0e7; padding: 6px; margin: 4px; border: 1px solid #8da1b4; border-radius: 5px; line-height: 60%\"\u003e\u003cp style\u003d\"margin-bottom: 0px\"\u003eResource \u0026quot;genomicFile4\u0026quot; \u003c/p\u003e\u003c/div\u003e\u003cp\u003e\u003cb\u003eidentifier\u003c/b\u003e: id: 11114\u003c/p\u003e\u003cp\u003e\u003cb\u003estatus\u003c/b\u003e: current\u003c/p\u003e\u003cp\u003e\u003cb\u003edocStatus\u003c/b\u003e: preliminary\u003c/p\u003e\u003cp\u003e\u003cb\u003esubject\u003c/b\u003e: \u003ca href\u003d\"Patient-denovoChild.html\"\u003ePatient/denovoChild: Child Junior Doe\u003c/a\u003e \u0026quot; DOE\u0026quot;\u003c/p\u003e\u003cp\u003e\u003cb\u003edescription\u003c/b\u003e: A sample Document Reference instance representing a generic genomic file that may ber used as input or output of a genomic analysis pipeline.\u003c/p\u003e\u003cp\u003e\u003cb\u003esecurityLabel\u003c/b\u003e: Restricted \u003cspan style\u003d\"background: LightGoldenRodYellow; margin: 4px; border: 1px solid khaki\"\u003e (\u003ca href\u003d\"http://terminology.hl7.org/3.1.0/CodeSystem-v3-Confidentiality.html\"\u003eConfidentiality\u003c/a\u003e#R)\u003c/span\u003e\u003c/p\u003e\u003cblockquote\u003e\u003cp\u003e\u003cb\u003econtent\u003c/b\u003e\u003c/p\u003e\u003c/blockquote\u003e\u003c/div\u003e"},"identifier":[{"system":"http://www.somesystemabc.net/identifiers/files","value":"11114"}],"status":"current","docStatus":"preliminary","subject":{"reference":"Patient/denovoChild","display":"Child Junior Doe"},"description":"A sample Document Reference instance representing a generic genomic file that may ber used as input or output of a genomic analysis pipeline.","securityLabel":[{"coding":[{"system":"http://terminology.hl7.org/CodeSystem/v3-Confidentiality","code":"R","display":"Restricted"}]}],"content":[{"attachment":{"url":"http://www.somesystemabc.net/identifiers/files/11114","title":"Sample Genomic File","creation":"2021-01-01T01:02:01+01:00"}}]}
{"resourceType":"DocumentReference","id":"sound","text":{"status":"generated","div":"\u003cdiv xmlns\u003d\"http://www.w3.org/1999/xhtml\"\u003eSound recording of speech example for Patient Henry Levin (MRN 12345):\u003cbr/\u003e\u003cimg src\u003d\"#11\" alt\u003d\"diagram\"/\u003e\u003c/div\u003e"},"status":"current","subject":{"reference":"Patient/xcda"},"author":[{"reference":"Practitioner/xcda-author"}],"content":[{"attachment":{"contentType":"audio/mpeg","data":"dG9vIGJpZyB0b28gaW5jbHVkZSB0aGUgd2hvbGU\u003d","duration":65}}]}
{"resourceType":"DocumentReference","id":"WES-FullSequencedRegion-GRCh38","text":{"status":"generated","div":"\u003cdiv xmlns\u003d\"http://www.w3.org/1999/xhtml\"\u003e\u003cp\u003e\u003cb\u003eGenerated Narrative\u003c/b\u003e\u003c/p\u003e\u003cdiv style\u003d\"display: inline-block; background-color: #d9e0e7; padding: 6px; margin: 4px; border: 1px solid #8da1b4; border-radius: 5px; line-height: 60%\"\u003e\u003cp style\u003d\"margin-bottom: 0px\"\u003eResource \u0026quot;WES_FullSequencedRegion_GRCh38\u0026quot; \u003c/p\u003e\u003c/div\u003e\u003cp\u003e\u003cb\u003eidentifier\u003c/b\u003e: id: 11117\u003c/p\u003e\u003cp\u003e\u003cb\u003estatus\u003c/b\u003e: current\u003c/p\u003e\u003cp\u003e\u003cb\u003edocStatus\u003c/b\u003e: preliminary\u003c/p\u003e\u003cp\u003e\u003cb\u003edescription\u003c/b\u003e: A sample Document Reference instance representing a BED file that may be used as input or output of a genomic analysis pipeline.\u003c/p\u003e\u003cp\u003e\u003cb\u003esecurityLabel\u003c/b\u003e: Restricted \u003cspan style\u003d\"background: LightGoldenRodYellow; margin: 4px; border: 1px solid khaki\"\u003e (\u003ca href\u003d\"http://terminology.hl7.org/3.1.0/CodeSystem-v3-Confidentiality.html\"\u003eConfidentiality\u003c/a\u003e#R)\u003c/span\u003e\u003c/p\u003e\u003cblockquote\u003e\u003cp\u003e\u003cb\u003econtent\u003c/b\u003e\u003c/p\u003e\u003c/blockquote\u003e\u003c/div\u003e"},"identifier":[{"system":"http://www.somesystemabc.net/identifiers/files","value":"11117"}],"status":"current","docStatus":"preliminary","description":"WES_FullSequencedRegion_GRCh38: A sample Document Reference instance representing a BED file that may be used as input or output of a genomic analysis pipeline.","securityLabel":[{"coding":[{"system":"http://terminology.hl7.org/CodeSystem/v3-Confidentiality","code":"R","display":"Restricted"}]}],"content":[{"attachment":{"url":"https://chat.fhir.org/user_uploads/10155/BILYJerATC59WlG15J316BEf/WES_FullSequencedRegion_GRCh38.bed","title":"WES_FullSequencedRegion_GRCh38","creation":"2019-03-01T01:02:01+01:00"}}]}
{"resourceType":"DocumentReference","id":"xray","text":{"status":"generated","div":"\u003cdiv xmlns\u003d\"http://www.w3.org/1999/xhtml\"\u003eXray of left hand for Patient Henry Levin (MRN 12345) 2016-03-15\u003c/div\u003e"},"status":"current","subject":{"reference":"Patient/example"},"context":[{"reference":"Encounter/example"},{"reference":"DocumentReference/documentreference-example-xray-encounter"}],"event":[{"concept":{"coding":[{"system":"http://snomed.info/sct","code":"39714003","display":"Skeletal X-ray of wrist and hand"}]}},{"concept":{"coding":[{"system":"http://snomed.info/sct","code":"85151006","display":"Structure of left hand (body structure)"}]}}],"content":[{"id":"a1","attachment":{"contentType":"image/jpeg","url":"http://someimagingcenter.org/fhir/Binary/A12345","creation":"2016-03-15","height":432,"width":640}}]}
{"resourceType":"DocumentReference","id":"genomicVCFfile","text":{"status":"generated","div":"\u003cdiv xmlns\u003d\"http://www.w3.org/1999/xhtml\"\u003e\u003cp\u003e\u003cb\u003eGenerated Narrative\u003c/b\u003e\u003c/p\u003e\u003cdiv style\u003d\"display: inline-block; background-color: #d9e0e7; padding: 6px; margin: 4px; border: 1px solid #8da1b4; border-radius: 5px; line-height: 60%\"\u003e\u003cp style\u003d\"margin-bottom: 0px\"\u003eResource \u0026quot;genomicVCFfile\u0026quot; \u003c/p\u003e\u003c/div\u003e\u003cp\u003e\u003cb\u003eidentifier\u003c/b\u003e: id: 11116\u003c/p\u003e\u003cp\u003e\u003cb\u003estatus\u003c/b\u003e: current\u003c/p\u003e\u003cp\u003e\u003cb\u003edocStatus\u003c/b\u003e: preliminary\u003c/p\u003e\u003cp\u003e\u003cb\u003edescription\u003c/b\u003e: A sample Document Reference instance representing a VCF file that may be used as input or output of a genomic analysis pipeline.\u003c/p\u003e\u003cp\u003e\u003cb\u003esecurityLabel\u003c/b\u003e: Restricted \u003cspan style\u003d\"background: LightGoldenRodYellow; margin: 4px; border: 1px solid khaki\"\u003e (\u003ca href\u003d\"http://terminology.hl7.org/3.1.0/CodeSystem-v3-Confidentiality.html\"\u003eConfidentiality\u003c/a\u003e#R)\u003c/span\u003e\u003c/p\u003e\u003cblockquote\u003e\u003cp\u003e\u003cb\u003econtent\u003c/b\u003e\u003c/p\u003e\u003c/blockquote\u003e\u003c/div\u003e"},"identifier":[{"system":"http://www.somesystemabc.net/identifiers/files","value":"11116"}],"status":"current","docStatus":"preliminary","description":"A sample Document Reference instance representing a VCF file that may be used as input or output of a genomic analysis pipeline.","securityLabel":[{"coding":[{"system":"http://terminology.hl7.org/CodeSystem/v3-Confidentiality","code":"R","display":"Restricted"}]}],"content":[{"attachment":{"url":"http://www.somesystemabc.net/identifiers/files/11114","title":"Sample Genomic VCF File","creation":"2019-03-01T01:02:01+01:00"}}]}
{"resourceType":"DocumentReference","id":"example","text":{"status":"extensions","div":"\u003cdiv xmlns\u003d\"http://www.w3.org/1999/xhtml\"\u003e\u003cp\u003e\u003cb\u003eGenerated Narrative: DocumentReference\u003c/b\u003e\u003ca name\u003d\"example\"\u003e \u003c/a\u003e\u003c/p\u003e\u003cdiv style\u003d\"display: inline-block; background-color: #d9e0e7; padding: 6px; margin: 4px; border: 1px solid #8da1b4; border-radius: 5px; line-height: 60%\"\u003e\u003cp style\u003d\"margin-bottom: 0px\"\u003eResource DocumentReference \u0026quot;example\u0026quot; \u003c/p\u003e\u003c/div\u003e\u003cp\u003e\u003cb\u003eSupporting info\u003c/b\u003e: \u003ca href\u003d\"patient-example-xcda.html\"\u003ePatient/xcda\u003c/a\u003e \u0026quot;Henry LEVIN\u0026quot;\u003c/p\u003e\u003cp\u003e\u003cb\u003eDocumentReference Source Patient\u003c/b\u003e: \u003ca href\u003d\"patient-example-xcda.html\"\u003ePatient/xcda\u003c/a\u003e \u0026quot;Henry LEVIN\u0026quot;\u003c/p\u003e\u003cp\u003e\u003cb\u003eidentifier\u003c/b\u003e: entryUUID: urn:oid:1.3.6.1.4.1.21367.2005.3.7.1234, uniqueId: urn:oid:1.3.6.1.4.1.21367.2005.3.7\u003c/p\u003e\u003cp\u003e\u003cb\u003estatus\u003c/b\u003e: current\u003c/p\u003e\u003cp\u003e\u003cb\u003edocStatus\u003c/b\u003e: preliminary\u003c/p\u003e\u003cp\u003e\u003cb\u003etype\u003c/b\u003e: Outpatient Note \u003cspan style\u003d\"background: LightGoldenRodYellow; margin: 4px; border: 1px solid khaki\"\u003e (\u003ca href\u003d\"https://loinc.org/\"\u003eLOINC\u003c/a\u003e#34108-1)\u003c/span\u003e\u003c/p\u003e\u003cp\u003e\u003cb\u003ecategory\u003c/b\u003e: History and Physical \u003cspan style\u003d\"background: LightGoldenRodYellow; margin: 4px; border: 1px solid khaki\"\u003e (classCodes#History and Physical)\u003c/span\u003e\u003c/p\u003e\u003cp\u003e\u003cb\u003esubject\u003c/b\u003e: \u003ca href\u003d\"patient-example-xcda.html\"\u003ePatient/xcda\u003c/a\u003e \u0026quot;Henry LEVIN\u0026quot;\u003c/p\u003e\u003cp\u003e\u003cb\u003econtext\u003c/b\u003e: \u003ca href\u003d\"encounter-example-xcda.html\"\u003eEncounter/xcda\u003c/a\u003e\u003c/p\u003e\u003ch3\u003eEvents\u003c/h3\u003e\u003ctable class\u003d\"grid\"\u003e\u003ctr\u003e\u003ctd\u003e-\u003c/td\u003e\u003ctd\u003e\u003cb\u003eConcept\u003c/b\u003e\u003c/td\u003e\u003c/tr\u003e\u003ctr\u003e\u003ctd\u003e*\u003c/td\u003e\u003ctd\u003eArm \u003cspan style\u003d\"background: LightGoldenRodYellow; margin: 4px; border: 1px solid khaki\"\u003e (eventCodes#T-D8200)\u003c/span\u003e\u003c/td\u003e\u003c/tr\u003e\u003c/table\u003e\u003cp\u003e\u003cb\u003efacilityType\u003c/b\u003e: Outpatient \u003cspan style\u003d\"background: LightGoldenRodYellow; margin: 4px; border: 1px solid khaki\"\u003e (healthcareFacilityTypeCodes#Outpatient)\u003c/span\u003e\u003c/p\u003e\u003cp\u003e\u003cb\u003epracticeSetting\u003c/b\u003e: General Medicine \u003cspan style\u003d\"background: LightGoldenRodYellow; margin: 4px; border: 1px solid khaki\"\u003e (practiceSettingCodes#General Medicine)\u003c/span\u003e\u003c/p\u003e\u003cp\u003e\u003cb\u003eperiod\u003c/b\u003e: 2004-12-23T08:00:00+11:00 --\u0026gt; 2004-12-23T08:01:00+11:00\u003c/p\u003e\u003cp\u003e\u003cb\u003edate\u003c/b\u003e: Dec 23, 2005, 10:43:41 PM\u003c/p\u003e\u003cp\u003e\u003cb\u003eauthor\u003c/b\u003e: \u003c/p\u003e\u003cul\u003e\u003cli\u003e\u003ca href\u003d\"practitioner-example-xcda1.html\"\u003ePractitioner/xcda1\u003c/a\u003e \u0026quot;Sherry DOPPLEMEYER\u0026quot;\u003c/li\u003e\u003cli\u003e\u003ca name\u003d\"a2\"\u003e \u003c/a\u003e\u003c/li\u003e\u003c/ul\u003e\u003cblockquote\u003e\u003cp/\u003e\u003cp\u003e\u003ca name\u003d\"a2\"\u003e \u003c/a\u003e\u003c/p\u003e\u003cp\u003e\u003cb\u003ename\u003c/b\u003e: Gerald Smitty \u003c/p\u003e\u003c/blockquote\u003e\u003ch3\u003eAttesters\u003c/h3\u003e\u003ctable class\u003d\"grid\"\u003e\u003ctr\u003e\u003ctd\u003e-\u003c/td\u003e\u003ctd\u003e\u003cb\u003eMode\u003c/b\u003e\u003c/td\u003e\u003ctd\u003e\u003cb\u003eParty\u003c/b\u003e\u003c/td\u003e\u003c/tr\u003e\u003ctr\u003e\u003ctd\u003e*\u003c/td\u003e\u003ctd\u003eOfficial \u003cspan style\u003d\"background: LightGoldenRodYellow; margin: 4px; border: 1px solid khaki\"\u003e (\u003ca href\u003d\"codesystem-composition-attestation-mode.html\"\u003eComposition Attestation Mode\u003c/a\u003e#official)\u003c/span\u003e\u003c/td\u003e\u003ctd\u003e\u003ca href\u003d\"organization-example-f001-burgers.html\"\u003eOrganization/f001\u003c/a\u003e \u0026quot;Burgers University Medical Center\u0026quot;\u003c/td\u003e\u003c/tr\u003e\u003c/table\u003e\u003cp\u003e\u003cb\u003ecustodian\u003c/b\u003e: \u003ca href\u003d\"organization-example-f001-burgers.html\"\u003eOrganization/f001\u003c/a\u003e \u0026quot;Burgers University Medical Center\u0026quot;\u003c/p\u003e\u003ch3\u003eRelatesTos\u003c/h3\u003e\u003ctable class\u003d\"grid\"\u003e\u003ctr\u003e\u003ctd\u003e-\u003c/td\u003e\u003ctd\u003e\u003cb\u003eCode\u003c/b\u003e\u003c/td\u003e\u003ctd\u003e\u003cb\u003eTarget\u003c/b\u003e\u003c/td\u003e\u003c/tr\u003e\u003ctr\u003e\u003ctd\u003e*\u003c/td\u003e\u003ctd\u003eAppends \u003cspan style\u003d\"background: LightGoldenRodYellow; margin: 4px; border: 1px solid khaki\"\u003e (\u003ca href\u003d\"codesystem-document-relationship-type.html\"\u003eDocument Relationship Type\u003c/a\u003e#appends)\u003c/span\u003e\u003c/td\u003e\u003ctd\u003e\u003ca href\u003d\"documentreference-example.html\"\u003eDocumentReference/example\u003c/a\u003e\u003c/td\u003e\u003c/tr\u003e\u003c/table\u003e\u003cp\u003e\u003cb\u003edescription\u003c/b\u003e: Physical\u003c/p\u003e\u003cp\u003e\u003cb\u003esecurityLabel\u003c/b\u003e: very restricted \u003cspan style\u003d\"background: LightGoldenRodYellow; margin: 4px; border: 1px solid khaki\"\u003e (\u003ca href\u003d\"http://terminology.hl7.org/5.1.0/CodeSystem-v3-Confidentiality.html\"\u003eConfidentiality\u003c/a\u003e#V)\u003c/span\u003e\u003c/p\u003e\u003cblockquote\u003e\u003cp\u003e\u003cb\u003econtent\u003c/b\u003e\u003c/p\u003e\u003ch3\u003eAttachments\u003c/h3\u003e\u003ctable class\u003d\"grid\"\u003e\u003ctr\u003e\u003ctd\u003e-\u003c/td\u003e\u003ctd\u003e\u003cb\u003eContentType\u003c/b\u003e\u003c/td\u003e\u003ctd\u003e\u003cb\u003eLanguage\u003c/b\u003e\u003c/td\u003e\u003ctd\u003e\u003cb\u003eUrl\u003c/b\u003e\u003c/td\u003e\u003ctd\u003e\u003cb\u003eSize\u003c/b\u003e\u003c/td\u003e\u003ctd\u003e\u003cb\u003eHash\u003c/b\u003e\u003c/td\u003e\u003ctd\u003e\u003cb\u003eTitle\u003c/b\u003e\u003c/td\u003e\u003ctd\u003e\u003cb\u003eCreation\u003c/b\u003e\u003c/td\u003e\u003c/tr\u003e\u003ctr\u003e\u003ctd\u003e*\u003c/td\u003e\u003ctd\u003eapplication/hl7-v3+xml\u003c/td\u003e\u003ctd\u003een-US\u003c/td\u003e\u003ctd\u003e\u003ca href\u003d\"http://example.org/xds/mhd/Binary/07a6483f-732b-461e-86b6-edb665c45510\"\u003ehttp://example.org/xds/mhd/Binary/07a6483f-732b-461e-86b6-edb665c45510\u003c/a\u003e\u003c/td\u003e\u003ctd\u003e3654\u003c/td\u003e\u003ctd\u003e2jmj7l5rSw0yVb/vlWAYkK/YBwk\u003d\u003c/td\u003e\u003ctd\u003ePhysical\u003c/td\u003e\u003ctd\u003e2005-12-24T09:35:00+11:00\u003c/td\u003e\u003c/tr\u003e\u003c/table\u003e\u003ch3\u003eProfiles\u003c/h3\u003e\u003ctable class\u003d\"grid\"\u003e\u003ctr\u003e\u003ctd\u003e-\u003c/td\u003e\u003ctd\u003e\u003cb\u003eValue[x]\u003c/b\u003e\u003c/td\u003e\u003c/tr\u003e\u003ctr\u003e\u003ctd\u003e*\u003c/td\u003e\u003ctd\u003eHistory and Physical Specification (Details: urn:oid:1.3.6.1.4.1.19376.1.2.3 code urn:ihe:pcc:handp:2008 \u003d \u0027urn:ihe:pcc:handp:2008\u0027, stated as \u0027History and Physical Specification\u0027)\u003c/td\u003e\u003c/tr\u003e\u003c/table\u003e\u003c/blockquote\u003e\u003c/div\u003e"},"contained":[{"resourceType":"Practitioner","id":"a2","name":[{"family":"Smitty","given":["Gerald"]}]}],"extension":[{"url":"http://hl7.org/fhir/StructureDefinition/workflow-supportingInfo","valueReference":{"reference":"Patient/xcda","identifier":{"system":"urn:ietf:rfc:3986","value":"urn:oid:1.3.6.1.4.1.21367.2005.3.7.2345"}}},{"url":"http://hl7.org/fhir/StructureDefinition/documentreference-sourcepatient","valueReference":{"reference":"Patient/xcda"}}],"identifier":[{"type":{"text":"entryUUID"},"system":"urn:ietf:rfc:3986","value":"urn:oid:1.3.6.1.4.1.21367.2005.3.7.1234"},{"type":{"text":"uniqueId"},"system":"urn:ietf:rfc:3986","value":"urn:oid:1.3.6.1.4.1.21367.2005.3.7"}],"status":"current","docStatus":"preliminary","type":{"coding":[{"system":"http://loinc.org","code":"34108-1","display":"Outpatient Note"}]},"category":[{"coding":[{"system":"http://ihe.net/xds/connectathon/classCodes","code":"History and Physical","display":"History and Physical"}]}],"subject":{"reference":"Patient/xcda"},"context":[{"reference":"Encounter/xcda"}],"event":[{"concept":{"coding":[{"system":"http://ihe.net/xds/connectathon/eventCodes","code":"T-D8200","display":"Arm"}]}}],"facilityType":{"coding":[{"system":"http://www.ihe.net/xds/connectathon/healthcareFacilityTypeCodes","code":"Outpatient","display":"Outpatient"}]},"practiceSetting":{"coding":[{"system":"http://www.ihe.net/xds/connectathon/practiceSettingCodes","code":"General Medicine","display":"General Medicine"}]},"period":{"start":"2004-12-23T08:00:00+11:00","end":"2004-12-23T08:01:00+11:00"},"date":"2005-12-24T09:43:41+11:00","author":[{"reference":"Practitioner/xcda1"},{"reference":"#a2"}],"attester":[{"mode":{"coding":[{"system":"http://hl7.org/fhir/composition-attestation-mode","code":"official"}]},"party":{"reference":"Organization/f001"}}],"custodian":{"reference":"Organization/f001"},"relatesTo":[{"code":{"coding":[{"system":"http://hl7.org/fhir/document-relationship-type","code":"appends"}]},"target":{"reference":"DocumentReference/example"}}],"description":"Physical","securityLabel":[{"coding":[{"system":"http://terminology.hl7.org/CodeSystem/v3-Confidentiality","code":"V","display":"very restricted"}]}],"content":[{"attachment":{"contentType":"application/hl7-v3+xml","language":"en-US","url":"http://example.org/xds/mhd/Binary/07a6483f-732b-461e-86b6-edb665c45510","size":"3654","hash":"2jmj7l5rSw0yVb/vlWAYkK/YBwk\u003d","title":"Physical","creation":"2005-12-24T09:35:00+11:00"},"profile":[{"valueCoding":{"system":"urn:oid:1.3.6.1.4.1.19376.1.2.3","code":"urn:ihe:pcc:handp:2008","display":"History and Physical Specification"}}]}]}
{"resourceType":"DocumentReference","id":"SimpleVariantAnalysis-called","text":{"status":"generated","div":"\u003cdiv xmlns\u003d\"http://www.w3.org/1999/xhtml\"\u003e\u003cp\u003e\u003cb\u003eGenerated Narrative\u003c/b\u003e\u003c/p\u003e\u003cdiv style\u003d\"display: inline-block; background-color: #d9e0e7; padding: 6px; margin: 4px; border: 1px solid #8da1b4; border-radius: 5px; line-height: 60%\"\u003e\u003cp style\u003d\"margin-bottom: 0px\"\u003eResource \u0026quot;SimpleVariantAnalysis_called\u0026quot; \u003c/p\u003e\u003c/div\u003e\u003cp\u003e\u003cb\u003eidentifier\u003c/b\u003e: id: 11118\u003c/p\u003e\u003cp\u003e\u003cb\u003estatus\u003c/b\u003e: current\u003c/p\u003e\u003cp\u003e\u003cb\u003edocStatus\u003c/b\u003e: preliminary\u003c/p\u003e\u003cp\u003e\u003cb\u003edescription\u003c/b\u003e: A sample Document Reference instance representing a BED file that may be used as input or output of a genomic analysis pipeline.\u003c/p\u003e\u003cp\u003e\u003cb\u003esecurityLabel\u003c/b\u003e: Restricted \u003cspan style\u003d\"background: LightGoldenRodYellow; margin: 4px; border: 1px solid khaki\"\u003e (\u003ca href\u003d\"http://terminology.hl7.org/3.1.0/CodeSystem-v3-Confidentiality.html\"\u003eConfidentiality\u003c/a\u003e#R)\u003c/span\u003e\u003c/p\u003e\u003cblockquote\u003e\u003cp\u003e\u003cb\u003econtent\u003c/b\u003e\u003c/p\u003e\u003c/blockquote\u003e\u003c/div\u003e"},"identifier":[{"system":"http://www.somesystemabc.net/identifiers/files","value":"11118"}],"status":"current","docStatus":"preliminary","description":"SimpleVariantAnalysis_called: A sample Document Reference instance representing a BED file that may be used as input or output of a genomic analysis pipeline.","securityLabel":[{"coding":[{"system":"http://terminology.hl7.org/CodeSystem/v3-Confidentiality","code":"R","display":"Restricted"}]}],"content":[{"attachment":{"url":"https://chat.fhir.org/user_uploads/10155/jQZWWKs4JO8ZfhfrbsCbbMUA/SimpleVariantAnalysis_called.bed","title":"SimpleVariantAnalysis_called","creation":"2019-03-01T01:02:01+01:00"}}]}
{"resourceType":"DocumentReference","id":"genomicFile2","text":{"status":"generated","div":"\u003cdiv xmlns\u003d\"http://www.w3.org/1999/xhtml\"\u003e\u003cp\u003e\u003cb\u003eGenerated Narrative\u003c/b\u003e\u003c/p\u003e\u003cdiv style\u003d\"display: inline-block; background-color: #d9e0e7; padding: 6px; margin: 4px; border: 1px solid #8da1b4; border-radius: 5px; line-height: 60%\"\u003e\u003cp style\u003d\"margin-bottom: 0px\"\u003eResource \u0026quot;genomicFile2\u0026quot; \u003c/p\u003e\u003c/div\u003e\u003cp\u003e\u003cb\u003eidentifier\u003c/b\u003e: id: 11112\u003c/p\u003e\u003cp\u003e\u003cb\u003estatus\u003c/b\u003e: current\u003c/p\u003e\u003cp\u003e\u003cb\u003edocStatus\u003c/b\u003e: preliminary\u003c/p\u003e\u003cp\u003e\u003cb\u003esubject\u003c/b\u003e: \u003ca href\u003d\"Patient-denovoMother.html\"\u003ePatient/denovoMother: Jane Doe\u003c/a\u003e \u0026quot; DOE\u0026quot;\u003c/p\u003e\u003cp\u003e\u003cb\u003edescription\u003c/b\u003e: A sample Document Reference instance representing a generic genomic file that may ber used as input or output of a genomic analysis pipeline.\u003c/p\u003e\u003cp\u003e\u003cb\u003esecurityLabel\u003c/b\u003e: Restricted \u003cspan style\u003d\"background: LightGoldenRodYellow; margin: 4px; border: 1px solid khaki\"\u003e (\u003ca href\u003d\"http://terminology.hl7.org/3.1.0/CodeSystem-v3-Confidentiality.html\"\u003eConfidentiality\u003c/a\u003e#R)\u003c/span\u003e\u003c/p\u003e\u003cblockquote\u003e\u003cp\u003e\u003cb\u003econtent\u003c/b\u003e\u003c/p\u003e\u003c/blockquote\u003e\u003c/div\u003e"},"identifier":[{"system":"http://www.somesystemabc.net/identifiers/files","value":"11112"}],"status":"current","docStatus":"preliminary","subject":{"reference":"Patient/denovoMother","display":"Jane Doe"},"description":"A sample Document Reference instance representing a generic genomic file that may ber used as input or output of a genomic analysis pipeline.","securityLabel":[{"coding":[{"system":"http://terminology.hl7.org/CodeSystem/v3-Confidentiality","code":"R","display":"Restricted"}]}],"content":[{"attachment":{"url":"http://www.somesystemabc.net/identifiers/files/11112","title":"Sample Genomic File","creation":"2021-01-01T01:01:01+01:00"}}]}
{"resourceType":"DocumentReference","id":"genomicFile1","text":{"status":"generated","div":"\u003cdiv xmlns\u003d\"http://www.w3.org/1999/xhtml\"\u003e\u003cp\u003e\u003cb\u003eGenerated Narrative\u003c/b\u003e\u003c/p\u003e\u003cdiv style\u003d\"display: inline-block; background-color: #d9e0e7; padding: 6px; margin: 4px; border: 1px solid #8da1b4; border-radius: 5px; line-height: 60%\"\u003e\u003cp style\u003d\"margin-bottom: 0px\"\u003eResource \u0026quot;genomicFile1\u0026quot; \u003c/p\u003e\u003c/div\u003e\u003cp\u003e\u003cb\u003eidentifier\u003c/b\u003e: id: 11111\u003c/p\u003e\u003cp\u003e\u003cb\u003estatus\u003c/b\u003e: current\u003c/p\u003e\u003cp\u003e\u003cb\u003edocStatus\u003c/b\u003e: preliminary\u003c/p\u003e\u003cp\u003e\u003cb\u003esubject\u003c/b\u003e: \u003ca href\u003d\"Patient-denovoChild.html\"\u003ePatient/denovoChild: Child Junior Doe\u003c/a\u003e \u0026quot; DOE\u0026quot;\u003c/p\u003e\u003cp\u003e\u003cb\u003edescription\u003c/b\u003e: A sample Document Reference instance representing a generic genomic file that may ber used as input or output of a genomic analysis pipeline.\u003c/p\u003e\u003cp\u003e\u003cb\u003esecurityLabel\u003c/b\u003e: Restricted \u003cspan style\u003d\"background: LightGoldenRodYellow; margin: 4px; border: 1px solid khaki\"\u003e (\u003ca href\u003d\"http://terminology.hl7.org/3.1.0/CodeSystem-v3-Confidentiality.html\"\u003eConfidentiality\u003c/a\u003e#R)\u003c/span\u003e\u003c/p\u003e\u003cblockquote\u003e\u003cp\u003e\u003cb\u003econtent\u003c/b\u003e\u003c/p\u003e\u003c/blockquote\u003e\u003c/div\u003e"},"identifier":[{"system":"http://www.somesystemabc.net/identifiers/files","value":"11111"}],"status":"current","docStatus":"preliminary","subject":{"reference":"Patient/denovoChild","display":"Child Junior Doe"},"description":"A sample Document Reference instance representing a generic genomic file that may ber used as input or output of a genomic analysis pipeline.","securityLabel":[{"coding":[{"system":"http://terminology.hl7.org/CodeSystem/v3-Confidentiality","code":"R","display":"Restricted"}]}],"content":[{"attachment":{"url":"http://www.somesystemabc.net/identifiers/files/11111","title":"Sample Genomic File","creation":"2021-01-01T01:01:01+01:00"}}]}
{"resourceType":"DocumentReference","id":"genomicFileMother","text":{"status":"generated","div":"\u003cdiv xmlns\u003d\"http://www.w3.org/1999/xhtml\"\u003e\u003cp\u003e\u003cb\u003eGenerated Narrative\u003c/b\u003e\u003c/p\u003e\u003cdiv style\u003d\"display: inline-block; background-color: #d9e0e7; padding: 6px; margin: 4px; border: 1px solid #8da1b4; border-radius: 5px; line-height: 60%\"\u003e\u003cp style\u003d\"margin-bottom: 0px\"\u003eResource \u0026quot;genomicFile2\u0026quot; \u003c/p\u003e\u003c/div\u003e\u003cp\u003e\u003cb\u003eidentifier\u003c/b\u003e: id: 11112\u003c/p\u003e\u003cp\u003e\u003cb\u003estatus\u003c/b\u003e: current\u003c/p\u003e\u003cp\u003e\u003cb\u003edocStatus\u003c/b\u003e: preliminary\u003c/p\u003e\u003cp\u003e\u003cb\u003esubject\u003c/b\u003e: \u003ca href\u003d\"Patient-denovoMother.html\"\u003ePatient/denovoMother: Jane Doe\u003c/a\u003e \u0026quot; DOE\u0026quot;\u003c/p\u003e\u003cp\u003e\u003cb\u003edescription\u003c/b\u003e: A sample Document Reference instance representing a generic genomic file that may ber used as input or output of a genomic analysis pipeline.\u003c/p\u003e\u003cp\u003e\u003cb\u003esecurityLabel\u003c/b\u003e: Restricted \u003cspan style\u003d\"background: LightGoldenRodYellow; margin: 4px; border: 1px solid khaki\"\u003e (\u003ca href\u003d\"http://terminology.hl7.org/3.1.0/CodeSystem-v3-Confidentiality.html\"\u003eConfidentiality\u003c/a\u003e#R)\u003c/span\u003e\u003c/p\u003e\u003cblockquote\u003e\u003cp\u003e\u003cb\u003econtent\u003c/b\u003e\u003c/p\u003e\u003c/blockquote\u003e\u003c/div\u003e"},"identifier":[{"system":"http://www.somesystemabc.net/identifiers/files","value":"11119"}],"status":"current","docStatus":"preliminary","subject":{"reference":"Patient/mother","display":"Jane Doe"},"description":"A sample Document Reference instance representing a generic genomic file that may ber used as input or output of a genomic analysis pipeline.","securityLabel":[{"coding":[{"system":"http://terminology.hl7.org/CodeSystem/v3-Confidentiality","code":"R","display":"Restricted"}]}],"content":[{"attachment":{"url":"http://www.somesystemabc.net/identifiers/files/11112","title":"Sample Genomic File","creation":"2021-01-01T01:01:01+01:00"}}]}
{"resourceType":"DocumentReference","id":"genomicFileProband","text":{"status":"generated","div":"\u003cdiv xmlns\u003d\"http://www.w3.org/1999/xhtml\"\u003e\u003cp\u003e\u003cb\u003eGenerated Narrative\u003c/b\u003e\u003c/p\u003e\u003cdiv style\u003d\"display: inline-block; background-color: #d9e0e7; padding: 6px; margin: 4px; border: 1px solid #8da1b4; border-radius: 5px; line-height: 60%\"\u003e\u003cp style\u003d\"margin-bottom: 0px\"\u003eResource \u0026quot;genomicFile1\u0026quot; \u003c/p\u003e\u003c/div\u003e\u003cp\u003e\u003cb\u003eidentifier\u003c/b\u003e: id: 11111\u003c/p\u003e\u003cp\u003e\u003cb\u003estatus\u003c/b\u003e: current\u003c/p\u003e\u003cp\u003e\u003cb\u003edocStatus\u003c/b\u003e: preliminary\u003c/p\u003e\u003cp\u003e\u003cb\u003esubject\u003c/b\u003e: \u003ca href\u003d\"Patient-denovoChild.html\"\u003ePatient/denovoChild: Child Junior Doe\u003c/a\u003e \u0026quot; DOE\u0026quot;\u003c/p\u003e\u003cp\u003e\u003cb\u003edescription\u003c/b\u003e: A sample Document Reference instance representing a generic genomic file that may ber used as input or output of a genomic analysis pipeline.\u003c/p\u003e\u003cp\u003e\u003cb\u003esecurityLabel\u003c/b\u003e: Restricted \u003cspan style\u003d\"background: LightGoldenRodYellow; margin: 4px; border: 1px solid khaki\"\u003e (\u003ca href\u003d\"http://terminology.hl7.org/3.1.0/CodeSystem-v3-Confidentiality.html\"\u003eConfidentiality\u003c/a\u003e#R)\u003c/span\u003e\u003c/p\u003e\u003cblockquote\u003e\u003cp\u003e\u003cb\u003econtent\u003c/b\u003e\u003c/p\u003e\u003c/blockquote\u003e\u003c/div\u003e"},"identifier":[{"system":"http://www.somesystemabc.net/identifiers/files","value":"11118"}],"status":"current","docStatus":"preliminary","subject":{"reference":"Patient/proband","display":"Child Junior Doe"},"description":"A sample Document Reference instance representing a generic genomic file that may ber used as input or output of a genomic analysis pipeline.","securityLabel":[{"coding":[{"system":"http://terminology.hl7.org/CodeSystem/v3-Confidentiality","code":"R","display":"Restricted"}]}],"content":[{"attachment":{"url":"http://www.somesystemabc.net/identifiers/files/11111","title":"Sample Genomic File","creation":"2021-01-01T01:01:01+01:00"}}]}
{"resourceType":"DocumentReference","id":"CNVAnalysis-called","text":{"status":"generated","div":"\u003cdiv xmlns\u003d\"http://www.w3.org/1999/xhtml\"\u003e\u003cp\u003e\u003cb\u003eGenerated Narrative\u003c/b\u003e\u003c/p\u003e\u003cdiv style\u003d\"display: inline-block; background-color: #d9e0e7; padding: 6px; margin: 4px; border: 1px solid #8da1b4; border-radius: 5px; line-height: 60%\"\u003e\u003cp style\u003d\"margin-bottom: 0px\"\u003eResource \u0026quot;CNVAnalysis_called\u0026quot; \u003c/p\u003e\u003c/div\u003e\u003cp\u003e\u003cb\u003eidentifier\u003c/b\u003e: id: 11120\u003c/p\u003e\u003cp\u003e\u003cb\u003estatus\u003c/b\u003e: current\u003c/p\u003e\u003cp\u003e\u003cb\u003edocStatus\u003c/b\u003e: preliminary\u003c/p\u003e\u003cp\u003e\u003cb\u003edescription\u003c/b\u003e: A sample Document Reference instance representing a BED file that may be used as input or output of a genomic analysis pipeline.\u003c/p\u003e\u003cp\u003e\u003cb\u003esecurityLabel\u003c/b\u003e: Restricted \u003cspan style\u003d\"background: LightGoldenRodYellow; margin: 4px; border: 1px solid khaki\"\u003e (\u003ca href\u003d\"http://terminology.hl7.org/3.1.0/CodeSystem-v3-Confidentiality.html\"\u003eConfidentiality\u003c/a\u003e#R)\u003c/span\u003e\u003c/p\u003e\u003cblockquote\u003e\u003cp\u003e\u003cb\u003econtent\u003c/b\u003e\u003c/p\u003e\u003c/blockquote\u003e\u003c/div\u003e"},"identifier":[{"system":"http://www.somesystemabc.net/identifiers/files","value":"11120"}],"status":"current","docStatus":"preliminary","description":"CNVAnalysis_called: A sample Document Reference instance representing a BED file that may be used as input or output of a genomic analysis pipeline.","securityLabel":[{"coding":[{"system":"http://terminology.hl7.org/CodeSystem/v3-Confidentiality","code":"R","display":"Restricted"}]}],"content":[{"attachment":{"url":"https://chat.fhir.org/user_uploads/10155/Hnv3LtumKn-1QjeyS2KVuw4R/CNVAnalysis_called.bed","title":"CNVAnalysis_called","creation":"2019-03-01T01:02:01+01:00"}}]}
{"resourceType":"DocumentReference","id":"example-diagram","text":{"status":"generated","div":"\u003cdiv xmlns\u003d\"http://www.w3.org/1999/xhtml\"\u003e\u003cp\u003e\u003cb\u003eGenerated Narrative: DocumentReference\u003c/b\u003e\u003ca name\u003d\"example-diagram\"\u003e \u003c/a\u003e\u003c/p\u003e\u003cdiv style\u003d\"display: inline-block; background-color: #d9e0e7; padding: 6px; margin: 4px; border: 1px solid #8da1b4; border-radius: 5px; line-height: 60%\"\u003e\u003cp style\u003d\"margin-bottom: 0px\"\u003eResource DocumentReference \u0026quot;example-diagram\u0026quot; \u003c/p\u003e\u003c/div\u003e\u003cp\u003e\u003cb\u003estatus\u003c/b\u003e: current\u003c/p\u003e\u003cp\u003e\u003cb\u003etype\u003c/b\u003e: Image \u003cspan style\u003d\"background: LightGoldenRodYellow; margin: 4px; border: 1px solid khaki\"\u003e (media-type#image)\u003c/span\u003e\u003c/p\u003e\u003cp\u003e\u003cb\u003esubject\u003c/b\u003e: \u003cspan title\u003d\"  don\u0027t have this codesystem in DocumentReference, could be brought into the event codes.\n\t\u0026lt;modality\u0026gt;\n\t\t\u0026lt;coding\u0026gt;\n\t\t\t\u0026lt;system value\u003d\u0026quot;http://terminology.hl7.org/CodeSystem/media-modality\u0026quot;/\u0026gt;\n\t\t\t\u0026lt;code value\u003d\u0026quot;diagram\u0026quot;/\u0026gt;\n\t\t\u0026lt;/coding\u0026gt;\n\t\u0026lt;/modality\u0026gt;\n\t \"\u003e\u003ca href\u003d\"patient-example-xcda.html\"\u003ePatient/xcda\u003c/a\u003e \u0026quot;Henry LEVIN\u0026quot;\u003c/span\u003e\u003c/p\u003e\u003cp\u003e\u003cb\u003edate\u003c/b\u003e: Dec 17, 2017, 2:56:18 PM\u003c/p\u003e\u003cp\u003e\u003cb\u003eauthor\u003c/b\u003e: \u003c/p\u003e\u003cul\u003e\u003cli\u003e\u003ca href\u003d\"practitioner-example-xcda-author.html\"\u003ePractitioner/xcda-author\u003c/a\u003e \u0026quot;Harold HIPPOCRATES\u0026quot;\u003c/li\u003e\u003cli\u003e\u003cspan\u003e: Acme Camera\u003c/span\u003e\u003c/li\u003e\u003c/ul\u003e\u003cblockquote\u003e\u003cp\u003e\u003cb\u003econtent\u003c/b\u003e\u003c/p\u003e\u003ch3\u003eAttachments\u003c/h3\u003e\u003ctable class\u003d\"grid\"\u003e\u003ctr\u003e\u003ctd\u003e-\u003c/td\u003e\u003ctd\u003e\u003cb\u003eContentType\u003c/b\u003e\u003c/td\u003e\u003ctd\u003e\u003cb\u003eData\u003c/b\u003e\u003c/td\u003e\u003ctd\u003e\u003cb\u003eCreation\u003c/b\u003e\u003c/td\u003e\u003ctd\u003e\u003cb\u003eHeight\u003c/b\u003e\u003c/td\u003e\u003ctd\u003e\u003cb\u003eWidth\u003c/b\u003e\u003c/td\u003e\u003ctd\u003e\u003cb\u003eFrames\u003c/b\u003e\u003c/td\u003e\u003c/tr\u003e\u003ctr\u003e\u003ctd\u003e*\u003c/td\u003e\u003ctd\u003eimage/gif\u003c/td\u003e\u003ctd\\u003c/td\u003e\u003ctd\u003e\u003cspan title\u003d\"  the date this image was created  \"\u003e2009-09-03\u003c/span\u003e\u003c/td\u003e\u003ctd\u003e145\u003c/td\u003e\u003ctd\u003e126\u003c/td\u003e\u003ctd\u003e1\u003c/td\u003e\u003c/tr\u003e\u003c/table\u003e\u003c/blockquote\u003e\u003c/div\u003e"},"status":"current","type":{"coding":[{"system":"http://terminology.hl7.org/CodeSystem/media-type","code":"image","display":"Image"}]},"subject":{"reference":"Patient/xcda"},"date":"2017-12-17T14:56:18Z","author":[{"reference":"Practitioner/xcda-author"},{"display":"Acme Camera"}],"content":[{"id":"a1","attachment":{"contentType":"image/gif","data":"","creation":"2009-09-03","height":145,"width":126,"frames":1}}]}
{"resourceType":"DocumentReference","id":"example-composition","meta":{"security":[{"system":"http://terminology.hl7.org/CodeSystem/v3-ActReason","code":"HTEST"}]},"text":{"status":"generated","div":"\u003cdiv xmlns\u003d\"http://www.w3.org/1999/xhtml\"\u003e\u003cp\u003e\u003cb\u003eGenerated Narrative: DocumentReference\u003c/b\u003e\u003ca name\u003d\"example-composition\"\u003e \u003c/a\u003e\u003c/p\u003e\u003cdiv style\u003d\"display: inline-block; background-color: #d9e0e7; padding: 6px; margin: 4px; border: 1px solid #8da1b4; border-radius: 5px; line-height: 60%\"\u003e\u003cp style\u003d\"margin-bottom: 0px\"\u003eResource DocumentReference \u0026quot;example-composition\u0026quot; \u003c/p\u003e\u003cp style\u003d\"margin-bottom: 0px\"\u003eSecurity Labels: \u003cspan title\u003d\"{http://terminology.hl7.org/CodeSystem/v3-ActReason http://terminology.hl7.org/CodeSystem/v3-ActReason}\"\u003ehttp://terminology.hl7.org/CodeSystem/v3-ActReason\u003c/span\u003e\u003c/p\u003e\u003c/div\u003e\u003cp\u003e\u003cb\u003eidentifier\u003c/b\u003e: id: 1\u003c/p\u003e\u003cp\u003e\u003cb\u003estatus\u003c/b\u003e: current\u003c/p\u003e\u003cp\u003e\u003cb\u003etype\u003c/b\u003e: Consult note \u003cspan style\u003d\"background: LightGoldenRodYellow; margin: 4px; border: 1px solid khaki\"\u003e (\u003ca href\u003d\"https://loinc.org/\"\u003eLOINC\u003c/a\u003e#11488-4)\u003c/span\u003e\u003c/p\u003e\u003cp\u003e\u003cb\u003ecategory\u003c/b\u003e: Report \u003cspan style\u003d\"background: LightGoldenRodYellow; margin: 4px; border: 1px solid khaki\"\u003e (\u003ca href\u003d\"https://loinc.org/\"\u003eLOINC\u003c/a\u003e#LP173421-1)\u003c/span\u003e\u003c/p\u003e\u003cp\u003e\u003cb\u003esubject\u003c/b\u003e: \u003ca href\u003d\"patient-example-xcda.html\"\u003ePatient/xcda: Henry Levin the 7th\u003c/a\u003e \u0026quot;Henry LEVIN\u0026quot;\u003c/p\u003e\u003cp\u003e\u003cb\u003econtext\u003c/b\u003e: \u003ca href\u003d\"encounter-example-xcda.html\"\u003eEncounter/xcda\u003c/a\u003e\u003c/p\u003e\u003ch3\u003eEvents\u003c/h3\u003e\u003ctable class\u003d\"grid\"\u003e\u003ctr\u003e\u003ctd\u003e-\u003c/td\u003e\u003ctd\u003e\u003cb\u003eConcept\u003c/b\u003e\u003c/td\u003e\u003ctd\u003e\u003cb\u003eReference\u003c/b\u003e\u003c/td\u003e\u003c/tr\u003e\u003ctr\u003e\u003ctd\u003e*\u003c/td\u003e\u003ctd\u003ehealth record \u003cspan style\u003d\"background: LightGoldenRodYellow; margin: 4px; border: 1px solid khaki\"\u003e (\u003ca href\u003d\"http://terminology.hl7.org/5.1.0/CodeSystem-v3-ActCode.html\"\u003eActCode\u003c/a\u003e#HEALTHREC)\u003c/span\u003e\u003c/td\u003e\u003ctd\u003e \u003c/td\u003e\u003c/tr\u003e\u003ctr\u003e\u003ctd\u003e*\u003c/td\u003e\u003ctd\u003e \u003c/td\u003e\u003ctd\u003e\u003ca href\u003d\"observation-example.html\"\u003eObservation/example\u003c/a\u003e\u003c/td\u003e\u003c/tr\u003e\u003c/table\u003e\u003cp\u003e\u003cb\u003eperiod\u003c/b\u003e: 2010-07-18 --\u0026gt; 2012-11-12\u003c/p\u003e\u003cp\u003e\u003cb\u003edate\u003c/b\u003e: Jan 4, 2012, 9:10:14 AM\u003c/p\u003e\u003cp\u003e\u003cb\u003eauthor\u003c/b\u003e: \u003ca href\u003d\"practitioner-example-xcda-author.html\"\u003ePractitioner/xcda-author: Harold Hippocrates, MD\u003c/a\u003e \u0026quot;Harold HIPPOCRATES\u0026quot;\u003c/p\u003e\u003ch3\u003eAttesters\u003c/h3\u003e\u003ctable class\u003d\"grid\"\u003e\u003ctr\u003e\u003ctd\u003e-\u003c/td\u003e\u003ctd\u003e\u003cb\u003eMode\u003c/b\u003e\u003c/td\u003e\u003ctd\u003e\u003cb\u003eParty\u003c/b\u003e\u003c/td\u003e\u003c/tr\u003e\u003ctr\u003e\u003ctd\u003e*\u003c/td\u003e\u003ctd\u003eProfessional \u003cspan style\u003d\"background: LightGoldenRodYellow; margin: 4px; border: 1px solid khaki\"\u003e (\u003ca href\u003d\"codesystem-composition-attestation-mode.html\"\u003eComposition Attestation Mode\u003c/a\u003e#professional)\u003c/span\u003e\u003c/td\u003e\u003ctd\u003e\u003ca href\u003d\"practitioner-example-xcda-author.html\"\u003ePractitioner/xcda-author: Harold Hippocrates, MD\u003c/a\u003e \u0026quot;Harold HIPPOCRATES\u0026quot;\u003c/td\u003e\u003c/tr\u003e\u003c/table\u003e\u003ch3\u003eRelatesTos\u003c/h3\u003e\u003ctable class\u003d\"grid\"\u003e\u003ctr\u003e\u003ctd\u003e-\u003c/td\u003e\u003ctd\u003e\u003cb\u003eCode\u003c/b\u003e\u003c/td\u003e\u003ctd\u003e\u003cb\u003eTarget\u003c/b\u003e\u003c/td\u003e\u003c/tr\u003e\u003ctr\u003e\u003ctd\u003e*\u003c/td\u003e\u003ctd\u003eReplaces \u003cspan style\u003d\"background: LightGoldenRodYellow; margin: 4px; border: 1px solid khaki\"\u003e (\u003ca href\u003d\"codesystem-document-relationship-type.html\"\u003eDocument Relationship Type\u003c/a\u003e#replaces)\u003c/span\u003e\u003c/td\u003e\u003ctd\u003e\u003ca href\u003d\"broken-link.html\"\u003eDocumentReference/old-example\u003c/a\u003e\u003c/td\u003e\u003c/tr\u003e\u003c/table\u003e\u003cp\u003e\u003cb\u003edescription\u003c/b\u003e: Example of a Comprehensive DocumentReference resource. This is fully filled for all mandatory elements and all optional elements.\u003c/p\u003e\u003cblockquote\u003e\u003cp\u003e\u003cb\u003econtent\u003c/b\u003e\u003c/p\u003e\u003ch3\u003eAttachments\u003c/h3\u003e\u003ctable class\u003d\"grid\"\u003e\u003ctr\u003e\u003ctd\u003e-\u003c/td\u003e\u003ctd\u003e\u003cb\u003eUrl\u003c/b\u003e\u003c/td\u003e\u003c/tr\u003e\u003ctr\u003e\u003ctd\u003e*\u003c/td\u003e\u003ctd\u003e\u003ccode\u003eComposition/example\u003c/code\u003e\u003c/td\u003e\u003c/tr\u003e\u003c/table\u003e\u003c/blockquote\u003e\u003c/div\u003e"},"identifier":[{"system":"http://healthintersections.com.au/test","value":"1"}],"status":"current","type":{"coding":[{"system":"http://loinc.org","code":"11488-4","display":"Consult note"}]},"category":[{"coding":[{"system":"http://loinc.org","code":"LP173421-1","display":"Report"}]}],"subject":{"reference":"Patient/xcda","display":"Henry Levin the 7th"},"context":[{"reference":"Encounter/xcda"}],"event":[{"concept":{"coding":[{"system":"http://terminology.hl7.org/CodeSystem/v3-ActCode","code":"HEALTHREC","display":"health record"}]}},{"reference":{"reference":"Observation/example"}}],"period":{"start":"2010-07-18","end":"2012-11-12"},"date":"2012-01-04T09:10:14Z","author":[{"reference":"Practitioner/xcda-author","display":"Harold Hippocrates, MD"}],"attester":[{"mode":{"coding":[{"system":"http://hl7.org/fhir/composition-attestation-mode","code":"professional"}]},"party":{"reference":"Practitioner/xcda-author","display":"Harold Hippocrates, MD"}}],"relatesTo":[{"code":{"coding":[{"system":"http://hl7.org/fhir/document-relationship-type","code":"replaces"}]},"target":{"reference":"DocumentReference/old-example"}}],"description":"Example of a Comprehensive DocumentReference resource. This is fully filled for all mandatory elements and all optional elements.","content":[{"attachment":{"url":"Composition/example"}}]}
{"resourceType":"DocumentReference","id":"1.2.840.11361907579238403408700.3.1.04.19970327150033","text":{"status":"generated","div":"\u003cdiv xmlns\u003d\"http://www.w3.org/1999/xhtml\"\u003e\n      Ultrasound Image on patient \u0026quot;James Chalmers\u0026quot;:\u003cbr/\u003e\n      \u003cimg src\u003d\"http://imaging.acme.com/wado/server?requestType\u003dWADO\u0026amp;contentType\u003dapplication%2Fdicom\u0026amp;studyUid\u003d1.2.840.113619.2.21.848.34082.0.538976288.3\u0026amp;seriesUid\u003d1.2.840.113619.2.21.3408.700.0.757923840.3.0\u0026amp;objectUid\u003d1.2.840.11361907579238403408700.3.1.04.19970327150033\" alt\u003d\"WADO reference to image\"/\u003e\n\n    \u003c/div\u003e"},"extension":[{"url":"http://nema.org/fhir/extensions#0002-0010","valueUri":"urn:oid:1.2.840.10008.1.2.1"}],"identifier":[{"type":{"text":"accessionNo"},"system":"http://acme-imaging.com/accession/2012","value":"1234567"},{"type":{"text":"studyId"},"system":"urn:dicom:uid","value":"urn:oid:1.2.840.113619.2.21.848.34082.0.538976288.3"},{"type":{"text":"seriesId"},"system":"urn:dicom:uid","value":"urn:oid:1.2.840.113619.2.21.3408.700.0.757923840.3.0"},{"use":"official","type":{"text":"InstanceUID"},"system":"urn:dicom:uid","value":"urn:oid:1.2.840.11361907579238403408700.3.1.04.19970327150033"}],"status":"current","modality":[{"coding":[{"system":"http://dicom.nema.org/resources/ontology/DCM","code":"US"}]}],"subject":{"reference":"Patient/example"},"event":[{"concept":{"coding":[{"system":"http://snomed.info/sct","code":"399067008","display":"Lateral projection"}]}}],"bodySite":[{"concept":{"coding":[{"system":"http://snomed.info/sct","code":"67734004","display":"Upper Trunk Structure"}]}}],"author":[{"display":"G.E. Medical Systems"}],"content":[{"attachment":{"contentType":"application/dicom","url":"http://imaging.acme.com/wado/server?requestType\u003dWADO\u0026contentType\u003dapplication%2Fdicom\u0026studyUid\u003d1.2.840.113619.2.21.848.34082.0.538976288.3\u0026seriesUid\u003d1.2.840.113619.2.21.3408.700.0.757923840.3.0\u0026objectUid\u003d1.2.840.11361907579238403408700.3.1.04.19970327150033","height":480,"width":640}}]}
{"resourceType":"DocumentReference","id":"genomicFile3","text":{"status":"generated","div":"\u003cdiv xmlns\u003d\"http://www.w3.org/1999/xhtml\"\u003e\u003cp\u003e\u003cb\u003eGenerated Narrative\u003c/b\u003e\u003c/p\u003e\u003cdiv style\u003d\"display: inline-block; background-color: #d9e0e7; padding: 6px; margin: 4px; border: 1px solid #8da1b4; border-radius: 5px; line-height: 60%\"\u003e\u003cp style\u003d\"margin-bottom: 0px\"\u003eResource \u0026quot;genomicFile3\u0026quot; \u003c/p\u003e\u003c/div\u003e\u003cp\u003e\u003cb\u003eidentifier\u003c/b\u003e: id: 11113\u003c/p\u003e\u003cp\u003e\u003cb\u003estatus\u003c/b\u003e: current\u003c/p\u003e\u003cp\u003e\u003cb\u003edocStatus\u003c/b\u003e: preliminary\u003c/p\u003e\u003cp\u003e\u003cb\u003esubject\u003c/b\u003e: \u003ca href\u003d\"Patient-denovoFather.html\"\u003ePatient/denovoFather: John Doe\u003c/a\u003e \u0026quot; DOE\u0026quot;\u003c/p\u003e\u003cp\u003e\u003cb\u003edescription\u003c/b\u003e: A sample Document Reference instance representing a generic genomic file that may ber used as input or output of a genomic analysis pipeline.\u003c/p\u003e\u003cp\u003e\u003cb\u003esecurityLabel\u003c/b\u003e: Restricted \u003cspan style\u003d\"background: LightGoldenRodYellow; margin: 4px; border: 1px solid khaki\"\u003e (\u003ca href\u003d\"http://terminology.hl7.org/3.1.0/CodeSystem-v3-Confidentiality.html\"\u003eConfidentiality\u003c/a\u003e#R)\u003c/span\u003e\u003c/p\u003e\u003cblockquote\u003e\u003cp\u003e\u003cb\u003econtent\u003c/b\u003e\u003c/p\u003e\u003c/blockquote\u003e\u003c/div\u003e"},"identifier":[{"system":"http://www.somesystemabc.net/identifiers/files","value":"11113"}],"status":"current","docStatus":"preliminary","subject":{"reference":"Patient/denovoFather","display":"John Doe"},"description":"A sample Document Reference instance representing a generic genomic file that may ber used as input or output of a genomic analysis pipeline.","securityLabel":[{"coding":[{"system":"http://terminology.hl7.org/CodeSystem/v3-Confidentiality","code":"R","display":"Restricted"}]}],"content":[{"attachment":{"url":"http://www.somesystemabc.net/identifiers/files/11113","title":"Sample Genomic File","creation":"2021-01-01T01:01:01+01:00"}}]}
{"resourceType":"DocumentReference","id":"example-bundle","meta":{"security":[{"system":"http://terminology.hl7.org/CodeSystem/v3-ActReason","code":"HTEST"},{"system":"http://terminology.hl7.org/CodeSystem/v3-Confidentiality","code":"N"}]},"text":{"status":"generated","div":"\u003cdiv xmlns\u003d\"http://www.w3.org/1999/xhtml\"\u003e\u003cp\u003e\u003cb\u003eGenerated Narrative: DocumentReference\u003c/b\u003e\u003ca name\u003d\"example-bundle\"\u003e \u003c/a\u003e\u003c/p\u003e\u003cdiv style\u003d\"display: inline-block; background-color: #d9e0e7; padding: 6px; margin: 4px; border: 1px solid #8da1b4; border-radius: 5px; line-height: 60%\"\u003e\u003cp style\u003d\"margin-bottom: 0px\"\u003eResource DocumentReference \u0026quot;example-bundle\u0026quot; \u003c/p\u003e\u003cp style\u003d\"margin-bottom: 0px\"\u003eSecurity Labels: \u003cspan title\u003d\"{http://terminology.hl7.org/CodeSystem/v3-ActReason http://terminology.hl7.org/CodeSystem/v3-ActReason}\"\u003ehttp://terminology.hl7.org/CodeSystem/v3-ActReason\u003c/span\u003e, \u003cspan title\u003d\"{http://terminology.hl7.org/CodeSystem/v3-Confidentiality http://terminology.hl7.org/CodeSystem/v3-Confidentiality}\"\u003ehttp://terminology.hl7.org/CodeSystem/v3-Confidentiality\u003c/span\u003e\u003c/p\u003e\u003c/div\u003e\u003cp\u003e\u003cb\u003eidentifier\u003c/b\u003e: id: urn:uuid:0c3151bd-1cbf-4d64-b04d-cd9187a4c6e0\u003c/p\u003e\u003cp\u003e\u003cb\u003estatus\u003c/b\u003e: current\u003c/p\u003e\u003cp\u003e\u003cb\u003etype\u003c/b\u003e: Physician attending Discharge summary \u003cspan style\u003d\"background: LightGoldenRodYellow; margin: 4px; border: 1px solid khaki\"\u003e (\u003ca href\u003d\"https://loinc.org/\"\u003eLOINC\u003c/a\u003e#28655-9)\u003c/span\u003e\u003c/p\u003e\u003cp\u003e\u003cb\u003esubject\u003c/b\u003e: \u003ca href\u003d\"broken-link.html\"\u003ehttp://fhir.healthintersections.com.au/open/Patient/d1: Eve Everywoman\u003c/a\u003e\u003c/p\u003e\u003ch3\u003eEvents\u003c/h3\u003e\u003ctable class\u003d\"grid\"\u003e\u003ctr\u003e\u003ctd\u003e-\u003c/td\u003e\u003ctd\u003e\u003cb\u003eReference\u003c/b\u003e\u003c/td\u003e\u003c/tr\u003e\u003ctr\u003e\u003ctd\u003e*\u003c/td\u003e\u003ctd\u003e\u003ca href\u003d\"broken-link.html\"\u003ehttp://fhir.healthintersections.com.au/open/Encounter/doc-example\u003c/a\u003e\u003c/td\u003e\u003c/tr\u003e\u003c/table\u003e\u003cp\u003e\u003cb\u003edate\u003c/b\u003e: Feb 1, 2013, 12:30:02 PM\u003c/p\u003e\u003cp\u003e\u003cb\u003eauthor\u003c/b\u003e: \u003ca href\u003d\"practitioner-example.html\"\u003ePractitioner/example: Doctor Dave\u003c/a\u003e \u0026quot;Adam CAREFUL\u0026quot;\u003c/p\u003e\u003cp\u003e\u003cb\u003edescription\u003c/b\u003e: Discharge Summary\u003c/p\u003e\u003cp\u003e\u003cb\u003esecurityLabel\u003c/b\u003e: normal \u003cspan style\u003d\"background: LightGoldenRodYellow; margin: 4px; border: 1px solid khaki\"\u003e (\u003ca href\u003d\"http://terminology.hl7.org/5.1.0/CodeSystem-v3-Confidentiality.html\"\u003eConfidentiality\u003c/a\u003e#N)\u003c/span\u003e\u003c/p\u003e\u003cblockquote\u003e\u003cp\u003e\u003cb\u003econtent\u003c/b\u003e\u003c/p\u003e\u003ch3\u003eAttachments\u003c/h3\u003e\u003ctable class\u003d\"grid\"\u003e\u003ctr\u003e\u003ctd\u003e-\u003c/td\u003e\u003ctd\u003e\u003cb\u003eUrl\u003c/b\u003e\u003c/td\u003e\u003c/tr\u003e\u003ctr\u003e\u003ctd\u003e*\u003c/td\u003e\u003ctd\u003e\u003cspan title\u003d\"  no content type as the retrieve will determine  \"\u003e\u003ccode\u003eBundle/father\u003c/code\u003e\u003c/span\u003e\u003c/td\u003e\u003c/tr\u003e\u003c/table\u003e\u003c/blockquote\u003e\u003c/div\u003e"},"identifier":[{"system":"urn:ietf:rfc:3986","value":"urn:uuid:0c3151bd-1cbf-4d64-b04d-cd9187a4c6e0"}],"status":"current","type":{"coding":[{"system":"http://loinc.org","code":"28655-9"}]},"subject":{"reference":"http://fhir.healthintersections.com.au/open/Patient/d1","display":"Eve Everywoman"},"event":[{"reference":{"reference":"http://fhir.healthintersections.com.au/open/Encounter/doc-example"}}],"date":"2013-02-01T12:30:02Z","author":[{"reference":"Practitioner/example","display":"Doctor Dave"}],"description":"Discharge Summary","securityLabel":[{"coding":[{"system":"http://terminology.hl7.org/CodeSystem/v3-Confidentiality","code":"N"}]}],"content":[{"attachment":{"url":"Bundle/father"}}]}
{"resourceType":"DocumentReference","id":"example-comprehensive","meta":{"security":[{"system":"http://terminology.hl7.org/CodeSystem/v3-ActReason","code":"HTEST"}]},"text":{"status":"extensions","div":"\u003cdiv xmlns\u003d\"http://www.w3.org/1999/xhtml\"\u003e\u003cp\u003e\u003cb\u003eGenerated Narrative: DocumentReference\u003c/b\u003e\u003ca name\u003d\"example-comprehensive\"\u003e \u003c/a\u003e\u003c/p\u003e\u003cdiv style\u003d\"display: inline-block; background-color: #d9e0e7; padding: 6px; margin: 4px; border: 1px solid #8da1b4; border-radius: 5px; line-height: 60%\"\u003e\u003cp style\u003d\"margin-bottom: 0px\"\u003eResource DocumentReference \u0026quot;example-comprehensive\u0026quot; \u003c/p\u003e\u003cp style\u003d\"margin-bottom: 0px\"\u003eSecurity Labels: \u003cspan title\u003d\"{http://terminology.hl7.org/CodeSystem/v3-ActReason http://terminology.hl7.org/CodeSystem/v3-ActReason}\"\u003ehttp://terminology.hl7.org/CodeSystem/v3-ActReason\u003c/span\u003e\u003c/p\u003e\u003c/div\u003e\u003cp\u003e\u003cb\u003eDocumentReference Source Patient\u003c/b\u003e: \u003ca name\u003d\"in-patient\"\u003e \u003c/a\u003e\u003c/p\u003e\u003cblockquote\u003e\u003cp style\u003d\"border: 1px #661aff solid; background-color: #e6e6ff; padding: 10px;\"\u003e\u003cb\u003eAnonymous Patient\u003c/b\u003e (no stated gender), DoB Unknown\u003c/p\u003e\u003chr/\u003e\u003c/blockquote\u003e\u003cp\u003e\u003cb\u003eidentifier\u003c/b\u003e: id: urn:oid:1.2.840.113556.1.8000.2554.58783.21864.3474.19410.44358.58254.41281.46340, id: urn:uuid:0c287d32-01e3-4d87-9953-9fcc9404eb21\u003c/p\u003e\u003cp\u003e\u003cb\u003eversion\u003c/b\u003e: urn:uuid:0c287d32-01e3-4d87-9953-9fcc9404eb21\u003c/p\u003e\u003cp\u003e\u003cb\u003estatus\u003c/b\u003e: current\u003c/p\u003e\u003cp\u003e\u003cb\u003etype\u003c/b\u003e: Addendum Document \u003cspan style\u003d\"background: LightGoldenRodYellow; margin: 4px; border: 1px solid khaki\"\u003e (\u003ca href\u003d\"https://loinc.org/\"\u003eLOINC\u003c/a\u003e#55107-7)\u003c/span\u003e\u003c/p\u003e\u003cp\u003e\u003cb\u003ecategory\u003c/b\u003e: History of immunization Narrative \u003cspan style\u003d\"background: LightGoldenRodYellow; margin: 4px; border: 1px solid khaki\"\u003e (\u003ca href\u003d\"https://loinc.org/\"\u003eLOINC\u003c/a\u003e#11369-6)\u003c/span\u003e\u003c/p\u003e\u003cp\u003e\u003cb\u003esubject\u003c/b\u003e: \u003ca href\u003d\"patient-example-xcda.html\"\u003ePatient/xcda\u003c/a\u003e \u0026quot;Henry LEVIN\u0026quot;\u003c/p\u003e\u003ch3\u003eEvents\u003c/h3\u003e\u003ctable class\u003d\"grid\"\u003e\u003ctr\u003e\u003ctd\u003e-\u003c/td\u003e\u003ctd\u003e\u003cb\u003eConcept\u003c/b\u003e\u003c/td\u003e\u003ctd\u003e\u003cb\u003eReference\u003c/b\u003e\u003c/td\u003e\u003c/tr\u003e\u003ctr\u003e\u003ctd\u003e*\u003c/td\u003e\u003ctd\u003eaccount receivable \u003cspan style\u003d\"background: LightGoldenRodYellow; margin: 4px; border: 1px solid khaki\"\u003e (\u003ca href\u003d\"http://terminology.hl7.org/5.1.0/CodeSystem-v3-ActCode.html\"\u003eActCode\u003c/a\u003e#ACCTRECEIVABLE)\u003c/span\u003e\u003c/td\u003e\u003ctd\u003e \u003c/td\u003e\u003c/tr\u003e\u003ctr\u003e\u003ctd\u003e*\u003c/td\u003e\u003ctd\u003e \u003c/td\u003e\u003ctd\u003e\u003cspan/\u003e\u003c/td\u003e\u003c/tr\u003e\u003c/table\u003e\u003cp\u003e\u003cb\u003efacilityType\u003c/b\u003e: Children\u0027s hospital \u003cspan style\u003d\"background: LightGoldenRodYellow; margin: 4px; border: 1px solid khaki\"\u003e (\u003ca href\u003d\"https://browser.ihtsdotools.org/\"\u003eSNOMED CT\u003c/a\u003e#82242000)\u003c/span\u003e\u003c/p\u003e\u003cp\u003e\u003cb\u003epracticeSetting\u003c/b\u003e: Adult mental illness - speciality \u003cspan style\u003d\"background: LightGoldenRodYellow; margin: 4px; border: 1px solid khaki\"\u003e (\u003ca href\u003d\"https://browser.ihtsdotools.org/\"\u003eSNOMED CT\u003c/a\u003e#408467006)\u003c/span\u003e\u003c/p\u003e\u003cp\u003e\u003cb\u003eperiod\u003c/b\u003e: 2020-12-31T23:50:50-05:00 --\u0026gt; 2020-12-31T23:50:50-05:00\u003c/p\u003e\u003cp\u003e\u003cb\u003edate\u003c/b\u003e: Jan 1, 2021, 4:50:50 AM\u003c/p\u003e\u003cp\u003e\u003cb\u003eauthor\u003c/b\u003e: \u003ca name\u003d\"in-author\"\u003e \u003c/a\u003e\u003c/p\u003e\u003cblockquote\u003e\u003cp/\u003e\u003cp\u003e\u003ca name\u003d\"in-author\"\u003e \u003c/a\u003e\u003c/p\u003e\u003cp\u003e\u003cb\u003etelecom\u003c/b\u003e: \u003ca href\u003d\"mailto:JohnMoehrke@gmail.com\"\u003eJohnMoehrke@gmail.com\u003c/a\u003e\u003c/p\u003e\u003c/blockquote\u003e\u003ch3\u003eAttesters\u003c/h3\u003e\u003ctable class\u003d\"grid\"\u003e\u003ctr\u003e\u003ctd\u003e-\u003c/td\u003e\u003ctd\u003e\u003cb\u003eMode\u003c/b\u003e\u003c/td\u003e\u003ctd\u003e\u003cb\u003eParty\u003c/b\u003e\u003c/td\u003e\u003c/tr\u003e\u003ctr\u003e\u003ctd\u003e*\u003c/td\u003e\u003ctd\u003eProfessional \u003cspan style\u003d\"background: LightGoldenRodYellow; margin: 4px; border: 1px solid khaki\"\u003e (\u003ca href\u003d\"codesystem-composition-attestation-mode.html\"\u003eComposition Attestation Mode\u003c/a\u003e#professional)\u003c/span\u003e\u003c/td\u003e\u003ctd\u003e\u003ca name\u003d\"in-author\"\u003e \u003c/a\u003e\u003cblockquote\u003e\u003cp/\u003e\u003cp\u003e\u003ca name\u003d\"in-author\"\u003e \u003c/a\u003e\u003c/p\u003e\u003cp\u003e\u003cb\u003etelecom\u003c/b\u003e: \u003ca href\u003d\"mailto:JohnMoehrke@gmail.com\"\u003eJohnMoehrke@gmail.com\u003c/a\u003e\u003c/p\u003e\u003c/blockquote\u003e\u003c/td\u003e\u003c/tr\u003e\u003c/table\u003e\u003ch3\u003eRelatesTos\u003c/h3\u003e\u003ctable class\u003d\"grid\"\u003e\u003ctr\u003e\u003ctd\u003e-\u003c/td\u003e\u003ctd\u003e\u003cb\u003eCode\u003c/b\u003e\u003c/td\u003e\u003ctd\u003e\u003cb\u003eTarget\u003c/b\u003e\u003c/td\u003e\u003c/tr\u003e\u003ctr\u003e\u003ctd\u003e*\u003c/td\u003e\u003ctd\u003eAppends \u003cspan style\u003d\"background: LightGoldenRodYellow; margin: 4px; border: 1px solid khaki\"\u003e (\u003ca href\u003d\"codesystem-document-relationship-type.html\"\u003eDocument Relationship Type\u003c/a\u003e#appends)\u003c/span\u003e\u003c/td\u003e\u003ctd\u003e\u003ca href\u003d\"documentreference-example.html\"\u003eDocumentReference/example\u003c/a\u003e\u003c/td\u003e\u003c/tr\u003e\u003c/table\u003e\u003cp\u003e\u003cb\u003edescription\u003c/b\u003e: Example of a Comprehensive DocumentReference resource. This is fully filled for all mandatory elements and all optional elements.\u003c/p\u003e\u003cp\u003e\u003cb\u003esecurityLabel\u003c/b\u003e: normal \u003cspan style\u003d\"background: LightGoldenRodYellow; margin: 4px; border: 1px solid khaki\"\u003e (\u003ca href\u003d\"http://terminology.hl7.org/5.1.0/CodeSystem-v3-Confidentiality.html\"\u003eConfidentiality\u003c/a\u003e#N)\u003c/span\u003e\u003c/p\u003e\u003cblockquote\u003e\u003cp\u003e\u003cb\u003econtent\u003c/b\u003e\u003c/p\u003e\u003ch3\u003eAttachments\u003c/h3\u003e\u003ctable class\u003d\"grid\"\u003e\u003ctr\u003e\u003ctd\u003e-\u003c/td\u003e\u003ctd\u003e\u003cb\u003eContentType\u003c/b\u003e\u003c/td\u003e\u003ctd\u003e\u003cb\u003eLanguage\u003c/b\u003e\u003c/td\u003e\u003ctd\u003e\u003cb\u003eUrl\u003c/b\u003e\u003c/td\u003e\u003ctd\u003e\u003cb\u003eSize\u003c/b\u003e\u003c/td\u003e\u003ctd\u003e\u003cb\u003eHash\u003c/b\u003e\u003c/td\u003e\u003ctd\u003e\u003cb\u003eTitle\u003c/b\u003e\u003c/td\u003e\u003ctd\u003e\u003cb\u003eCreation\u003c/b\u003e\u003c/td\u003e\u003c/tr\u003e\u003ctr\u003e\u003ctd\u003e*\u003c/td\u003e\u003ctd\u003etext/plain\u003c/td\u003e\u003ctd\u003een\u003c/td\u003e\u003ctd\u003e\u003ca href\u003d\"http://example.com/nowhere.txt\"\u003ehttp://example.com/nowhere.txt\u003c/a\u003e\u003c/td\u003e\u003ctd\u003e190\u003c/td\u003e\u003ctd\u003eOGEzOGYyNjMzMDA2ZmQ1MzUxNDljNDRhM2E3M2YzMTI0MzdiMzQ3OA\u003d\u003d\u003c/td\u003e\u003ctd\u003eDocumentReference for Comprehensive fully filled metadata\u003c/td\u003e\u003ctd\u003e2020-12-31T23:50:50-05:00\u003c/td\u003e\u003c/tr\u003e\u003c/table\u003e\u003ch3\u003eProfiles\u003c/h3\u003e\u003ctable class\u003d\"grid\"\u003e\u003ctr\u003e\u003ctd\u003e-\u003c/td\u003e\u003ctd\u003e\u003cb\u003eValue[x]\u003c/b\u003e\u003c/td\u003e\u003c/tr\u003e\u003ctr\u003e\u003ctd\u003e*\u003c/td\u003e\u003ctd\u003eITI XDS-SD TEXT (Details: http://ihe.net/fhir/ihe.formatcode.fhir/CodeSystem/formatcode code urn:ihe:iti:xds-sd:text:2008 \u003d \u0027ITI XDS-SD TEXT\u0027, stated as \u0027null\u0027)\u003c/td\u003e\u003c/tr\u003e\u003c/table\u003e\u003c/blockquote\u003e\u003c/div\u003e"},"contained":[{"resourceType":"Practitioner","id":"in-author","telecom":[{"system":"email","value":"JohnMoehrke@gmail.com"}]},{"resourceType":"Patient","id":"in-patient"}],"extension":[{"url":"http://hl7.org/fhir/StructureDefinition/documentreference-sourcepatient","valueReference":{"reference":"#in-patient"}}],"identifier":[{"system":"urn:ietf:rfc:3986","value":"urn:oid:1.2.840.113556.1.8000.2554.58783.21864.3474.19410.44358.58254.41281.46340"},{"system":"urn:ietf:rfc:3986","value":"urn:uuid:0c287d32-01e3-4d87-9953-9fcc9404eb21"}],"version":"urn:uuid:0c287d32-01e3-4d87-9953-9fcc9404eb21","status":"current","type":{"coding":[{"system":"http://loinc.org","code":"55107-7"}]},"category":[{"coding":[{"system":"http://loinc.org","code":"11369-6"}]}],"subject":{"reference":"Patient/xcda"},"event":[{"concept":{"coding":[{"system":"http://terminology.hl7.org/CodeSystem/v3-ActCode","code":"ACCTRECEIVABLE"}]}},{"reference":{"identifier":{"system":"urn:ietf:rfc:3986","value":"urn:oid:1.2.840.113556.1.8000.2554.17917.46600.21181.17878.33419.62048.57128.2759"}}}],"facilityType":{"coding":[{"system":"http://snomed.info/sct","code":"82242000"}]},"practiceSetting":{"coding":[{"system":"http://snomed.info/sct","code":"408467006"}]},"period":{"start":"2020-12-31T23:50:50-05:00","end":"2020-12-31T23:50:50-05:00"},"date":"2020-12-31T23:50:50-05:00","author":[{"reference":"#in-author"}],"attester":[{"mode":{"coding":[{"system":"http://hl7.org/fhir/composition-attestation-mode","code":"professional"}]},"party":{"reference":"#in-author"}}],"relatesTo":[{"code":{"coding":[{"system":"http://hl7.org/fhir/document-relationship-type","code":"appends"}]},"target":{"reference":"DocumentReference/example"}}],"description":"Example of a Comprehensive DocumentReference resource. This is fully filled for all mandatory elements and all optional elements.","securityLabel":[{"coding":[{"system":"http://terminology.hl7.org/CodeSystem/v3-Confidentiality","code":"N"}]}],"content":[{"attachment":{"contentType":"text/plain","language":"en","url":"http://example.com/nowhere.txt","size":"190","hash":"OGEzOGYyNjMzMDA2ZmQ1MzUxNDljNDRhM2E3M2YzMTI0MzdiMzQ3OA\u003d\u003d","title":"DocumentReference for Comprehensive fully filled metadata","creation":"2020-12-31T23:50:50-05:00"},"profile":[{"valueCoding":{"system":"http://ihe.net/fhir/ihe.formatcode.fhir/CodeSystem/formatcode","code":"urn:ihe:iti:xds-sd:text:2008"}}]}]}
{"resourceType":"DocumentReference","id":"genomicFileFather","text":{"status":"generated","div":"\u003cdiv xmlns\u003d\"http://www.w3.org/1999/xhtml\"\u003e\u003cp\u003e\u003cb\u003eGenerated Narrative\u003c/b\u003e\u003c/p\u003e\u003cdiv style\u003d\"display: inline-block; background-color: #d9e0e7; padding: 6px; margin: 4px; border: 1px solid #8da1b4; border-radius: 5px; line-height: 60%\"\u003e\u003cp style\u003d\"margin-bottom: 0px\"\u003eResource \u0026quot;genomicFile3\u0026quot; \u003c/p\u003e\u003c/div\u003e\u003cp\u003e\u003cb\u003eidentifier\u003c/b\u003e: id: 11113\u003c/p\u003e\u003cp\u003e\u003cb\u003estatus\u003c/b\u003e: current\u003c/p\u003e\u003cp\u003e\u003cb\u003edocStatus\u003c/b\u003e: preliminary\u003c/p\u003e\u003cp\u003e\u003cb\u003esubject\u003c/b\u003e: \u003ca href\u003d\"Patient-denovoFather.html\"\u003ePatient/denovoFather: John Doe\u003c/a\u003e \u0026quot; DOE\u0026quot;\u003c/p\u003e\u003cp\u003e\u003cb\u003edescription\u003c/b\u003e: A sample Document Reference instance representing a generic genomic file that may ber used as input or output of a genomic analysis pipeline.\u003c/p\u003e\u003cp\u003e\u003cb\u003esecurityLabel\u003c/b\u003e: Restricted \u003cspan style\u003d\"background: LightGoldenRodYellow; margin: 4px; border: 1px solid khaki\"\u003e (\u003ca href\u003d\"http://terminology.hl7.org/3.1.0/CodeSystem-v3-Confidentiality.html\"\u003eConfidentiality\u003c/a\u003e#R)\u003c/span\u003e\u003c/p\u003e\u003cblockquote\u003e\u003cp\u003e\u003cb\u003econtent\u003c/b\u003e\u003c/p\u003e\u003c/blockquote\u003e\u003c/div\u003e"},"identifier":[{"system":"http://www.somesystemabc.net/identifiers/files","value":"111110"}],"status":"current","docStatus":"preliminary","subject":{"reference":"Patient/father","display":"John Doe"},"description":"A sample Document Reference instance representing a generic genomic file that may ber used as input or output of a genomic analysis pipeline.","securityLabel":[{"coding":[{"system":"http://terminology.hl7.org/CodeSystem/v3-Confidentiality","code":"R","display":"Restricted"}]}],"content":[{"attachment":{"url":"http://www.somesystemabc.net/identifiers/files/11113","title":"Sample Genomic File","creation":"2021-01-01T01:01:01+01:00"}}]}
{"resourceType":"DocumentReference","id":"genomicBEDfile","text":{"status":"generated","div":"\u003cdiv xmlns\u003d\"http://www.w3.org/1999/xhtml\"\u003e\u003cp\u003e\u003cb\u003eGenerated Narrative\u003c/b\u003e\u003c/p\u003e\u003cdiv style\u003d\"display: inline-block; background-color: #d9e0e7; padding: 6px; margin: 4px; border: 1px solid #8da1b4; border-radius: 5px; line-height: 60%\"\u003e\u003cp style\u003d\"margin-bottom: 0px\"\u003eResource \u0026quot;genomicBEDfile\u0026quot; \u003c/p\u003e\u003c/div\u003e\u003cp\u003e\u003cb\u003eidentifier\u003c/b\u003e: id: 11115\u003c/p\u003e\u003cp\u003e\u003cb\u003estatus\u003c/b\u003e: current\u003c/p\u003e\u003cp\u003e\u003cb\u003edocStatus\u003c/b\u003e: preliminary\u003c/p\u003e\u003cp\u003e\u003cb\u003edescription\u003c/b\u003e: A sample Document Reference instance representing a BED file that may be used as input or output of a genomic analysis pipeline.\u003c/p\u003e\u003cp\u003e\u003cb\u003esecurityLabel\u003c/b\u003e: Restricted \u003cspan style\u003d\"background: LightGoldenRodYellow; margin: 4px; border: 1px solid khaki\"\u003e (\u003ca href\u003d\"http://terminology.hl7.org/3.1.0/CodeSystem-v3-Confidentiality.html\"\u003eConfidentiality\u003c/a\u003e#R)\u003c/span\u003e\u003c/p\u003e\u003cblockquote\u003e\u003cp\u003e\u003cb\u003econtent\u003c/b\u003e\u003c/p\u003e\u003c/blockquote\u003e\u003c/div\u003e"},"identifier":[{"system":"http://www.somesystemabc.net/identifiers/files","value":"11116"}],"status":"current","docStatus":"preliminary","description":"A sample Document Reference instance representing a BED file that may be used as input or output of a genomic analysis pipeline.","securityLabel":[{"coding":[{"system":"http://terminology.hl7.org/CodeSystem/v3-Confidentiality","code":"R","display":"Restricted"}]}],"content":[{"attachment":{"url":"http://www.somesystemabc.net/identifiers/files/11114","title":"Sample Genomic BED File","creation":"2019-03-01T01:02:01+01:00"}}]}