{"resourceType":"MedicinalProductDefinition","id":"equilidem-basics","text":{"status":"generated","div":"\u003cdiv xmlns\u003d\"http://www.w3.org/1999/xhtml\"\u003e\n\t\t\t\u003cp\u003e\n\t\t\t\t\u003cb\u003e\n\t\t\t\t\tGenerated Narrative\n\t\t\t\t\u003c/b\u003e\n\t\t\t\u003c/p\u003e\n\t\t\t\u003cp\u003e\n\t\t\t\t\u003cb\u003e\n\t\t\t\t\tId\n\t\t\t\t\u003c/b\u003e\n\t\t\t\t: equilidem-basics\n\t\t\t\u003c/p\u003e\n\t\t\t\u003cp\u003e\n\t\t\t\t\u003cb\u003e\n\t\t\t\t\tIdentifier\n\t\t\t\t\u003c/b\u003e\n\t\t\t\t: Equilidem25\n\t\t\t\u003c/p\u003e\n\t\t\t\u003cp\u003e\n\t\t\t\t\u003cb\u003e\n\t\t\t\t\tCombined Pharmaceutical Dose Form\n\t\t\t\t\u003c/b\u003e\n\t\t\t\t:\n\t\t\t\t\u003cspan title\u003d\"Codes: {http://example.org.uk/fhir/dosefom tablet}\"\u003e\n\t\t\t\t\ttablet\n\t\t\t\t\u003c/span\u003e\n\t\t\t\u003c/p\u003e\n\t\t\t\u003cp\u003e\n\t\t\t\t\u003cb\u003e\n\t\t\t\t\tIndication\n\t\t\t\t\u003c/b\u003e\n\t\t\t\t: Prevention of venous thromboembolic events (VTE) in adult patients who have undergone elective hip or knee replacement surgery. Prevention of stroke and systemic embolism in adult patients with non-valvular atrial fibrillation (NVAF), with one or more risk factors, such as prior stroke or transient ischaemic attack (TIA); age ≥ 75 years; hypertension; diabetes mellitus; symptomatic heart failure (NYHA Class \u0026gt;\u003d II). Treatment of deep vein thrombosis (DVT) and pulmonary embolism (PE), and prevention of recurrent DVT and PE in adults.\n\t\t\t\u003c/p\u003e\n\t\t\t\u003cp\u003e\n\t\t\t\t\u003cb\u003e\n\t\t\t\t\tLegal Status Of Supply\n\t\t\t\t\u003c/b\u003e\n\t\t\t\t:\n\t\t\t\t\u003cspan title\u003d\"Codes: {http://example.org.uk/fhir/legalstatusofsupply POM}\"\u003e\n\t\t\t\t\tPrescription only medicine\n\t\t\t\t\u003c/span\u003e\n\t\t\t\u003c/p\u003e\n\t\t\t\u003cp\u003e\n\t\t\t\t\u003cb\u003e\n\t\t\t\t\tClassification\n\t\t\t\t\u003c/b\u003e\n\t\t\t\t:\n\t\t\t\t\u003cspan title\u003d\"Codes: {http://www.whocc.no/atc/example B01A}\"\u003e\n\t\t\t\t\tATC: B01A\n\t\t\t\t\u003c/span\u003e\n\t\t\t\u003c/p\u003e\n\t\t\t\u003cp\u003e\n\t\t\t\t\u003cb\u003e\n\t\t\t\t\tIngredient\n\t\t\t\t\u003c/b\u003e\n\t\t\t\t:\n\t\t\t\u003c/p\u003e\n\t\t\t\u003cul\u003e\n\t\t\t\t\u003cli\u003e\n\t\t\t\t\t\u003cspan\u003e\n\t\t\t\t\t\tEquilidonium Phosphate\n\t\t\t\t\t\u003c/span\u003e\n\t\t\t\t\u003c/li\u003e\n\t\t\t\t\u003cli\u003e\n\t\t\t\t\t\u003cspan\u003e\n\t\t\t\t\t\tCalcium Carbonate\n\t\t\t\t\t\u003c/span\u003e\n\t\t\t\t\u003c/li\u003e\n\t\t\t\u003c/ul\u003e\n\t\t\t\u003ch3\u003e\n\t\t\t\tNames\n\t\t\t\u003c/h3\u003e\n\t\t\t\u003ctable class\u003d\"grid\"\u003e\n\t\t\t\t\u003ctr\u003e\n\t\t\t\t\t\u003ctd\u003e\n\t\t\t\t\t\t-\n\t\t\t\t\t\u003c/td\u003e\n\t\t\t\t\t\u003ctd\u003e\n\t\t\t\t\t\t\u003cb\u003e\n\t\t\t\t\t\t\tProduct Name\n\t\t\t\t\t\t\u003c/b\u003e\n\t\t\t\t\t\u003c/td\u003e\n\t\t\t\t\u003c/tr\u003e\n\t\t\t\t\u003ctr\u003e\n\t\t\t\t\t\u003ctd\u003e\n\t\t\t\t\t\t*\n\t\t\t\t\t\u003c/td\u003e\n\t\t\t\t\t\u003ctd\u003e\n\t\t\t\t\t\tEquilidem 2.5 mg film-coated tablets\n\t\t\t\t\t\u003c/td\u003e\n\t\t\t\t\u003c/tr\u003e\n\t\t\t\u003c/table\u003e\n\t\t\t\u003ch3\u003e\n\t\t\t\tCross References\n\t\t\t\u003c/h3\u003e\n\t\t\t\u003ctable class\u003d\"grid\"\u003e\n\t\t\t\t\u003ctr\u003e\n\t\t\t\t\t\u003ctd\u003e\n\t\t\t\t\t\t-\n\t\t\t\t\t\u003c/td\u003e\n\t\t\t\t\t\u003ctd\u003e\n\t\t\t\t\t\t\u003cb\u003e\n\t\t\t\t\t\t\tProduct\n\t\t\t\t\t\t\u003c/b\u003e\n\t\t\t\t\t\u003c/td\u003e\n\t\t\t\t\u003c/tr\u003e\n\t\t\t\t\u003ctr\u003e\n\t\t\t\t\t\u003ctd\u003e\n\t\t\t\t\t\t*\n\t\t\t\t\t\u003c/td\u003e\n\t\t\t\t\t\u003ctd\u003e\n\t\t\t\t\t\tLink to generic equivalent\n\t\t\t\t\t\u003c/td\u003e\n\t\t\t\t\u003c/tr\u003e\n\t\t\t\u003c/table\u003e\n\t\t\t\u003ch3\u003e\n\t\t\t\tManufacturing/Business Operations\n\t\t\t\u003c/h3\u003e\n\t\t\t\u003ctable class\u003d\"grid\"\u003e\n\t\t\t\t\u003ctr\u003e\n\t\t\t\t\t\u003ctd\u003e\n\t\t\t\t\t\t-\n\t\t\t\t\t\u003c/td\u003e\n\t\t\t\t\t\u003ctd\u003e\n\t\t\t\t\t\t\u003cb\u003e\n\t\t\t\t\t\t\tManufacturer\n\t\t\t\t\t\t\u003c/b\u003e\n\t\t\t\t\t\u003c/td\u003e\n\t\t\t\t\u003c/tr\u003e\n\t\t\t\t\u003ctr\u003e\n\t\t\t\t\t\u003ctd\u003e\n\t\t\t\t\t\t*\n\t\t\t\t\t\u003c/td\u003e\n\t\t\t\t\t\u003ctd\u003e\n\t\t\t\t\t\t\u003cspan\u003e\n\t\t\t\t\t\t\tEquiliDrugCo Inc.\n\t\t\t\t\t\t\u003c/span\u003e\n\t\t\t\t\t\u003c/td\u003e\n\t\t\t\t\u003c/tr\u003e\n\t\t\t\u003c/table\u003e\n\t\t\u003c/div\u003e"},"identifier":[{"system":"http://example.org.uk/fhir/product","value":"Equilidem25"}],"combinedPharmaceuticalDoseForm":{"coding":[{"system":"http://example.org.uk/fhir/dosefom","code":"tablet"}]},"indication":"Prevention of venous thromboembolic events (VTE) in adult patients who have undergone elective hip or knee replacement surgery. Prevention of stroke and systemic embolism in adult patients with non-valvular atrial fibrillation (NVAF), with one or more risk factors, such as prior stroke or transient ischaemic attack (TIA); age ≥ 75 years; hypertension; diabetes mellitus; symptomatic heart failure (NYHA Class \u003e\u003d II). Treatment of deep vein thrombosis (DVT) and pulmonary embolism (PE), and prevention of recurrent DVT and PE in adults.","legalStatusOfSupply":{"coding":[{"system":"http://example.org.uk/fhir/legalstatusofsupply","code":"POM","display":"Prescription only medicine"}]},"classification":[{"coding":[{"system":"http://www.whocc.no/atc/example","code":"B01A"}]}],"ingredient":[{"text":"Equilidonium Phosphate"},{"text":"Calcium Carbonate"}],"name":[{"productName":"Equilidem 2.5 mg film-coated tablets"}],"crossReference":[{"product":{"reference":{"reference":"MedicinalProductDefinition/genericEquilidonium"}}}],"operation":[{"organization":[{"display":"EquiliDrugCo Inc."}]}]}
{"resourceType":"MedicinalProductDefinition","id":"drug-and-device-complete","text":{"status":"generated","div":"\u003cdiv xmlns\u003d\"http://www.w3.org/1999/xhtml\"\u003e\n\t\t\t\u003cp\u003e\n\t\t\t\t\u003cb\u003e\n\t\t\t\t\tGenerated Narrative\n\t\t\t\t\u003c/b\u003e\n\t\t\t\u003c/p\u003e\n\t\t\t\u003cp\u003e\n\t\t\t\t\u003cb\u003e\n\t\t\t\t\tid\n\t\t\t\t\u003c/b\u003e\n\t\t\t\t: drug-and-device\n\t\t\t\u003c/p\u003e\n\t\t\t\u003cp\u003e\n\t\t\t\t\u003cb\u003e\n\t\t\t\t\tidentifier\n\t\t\t\t\u003c/b\u003e\n\t\t\t\t: id: Wonderdrug+\n\t\t\t\u003c/p\u003e\n\t\t\t\u003cp\u003e\n\t\t\t\t\u003cb\u003e\n\t\t\t\t\tCombined Pharmaceutical Dose Form\n\t\t\t\t\u003c/b\u003e\n\t\t\t\t:\n\t\t\t\t\u003cspan title\u003d\"Codes: {http://example.org.uk/fhir/doseform solution for injection}\"\u003e\n\t\t\t\t\tsolution for injection\n\t\t\t\t\u003c/span\u003e\n\t\t\t\u003c/p\u003e\n\t\t\t\u003cp\u003e\n\t\t\t\t\u003cb\u003e\n\t\t\t\t\tPackaged Product\n\t\t\t\t\u003c/b\u003e\n\t\t\t\t:\n\t\t\t\t\u003ca name\u003d\"package\"/\u003e\n\t\t\t\u003c/p\u003e\n\t\t\t\u003cblockquote\u003e\n\t\t\t\t\u003cp\u003e\n\t\t\t\t\t\u003cb\u003e\n\t\t\t\t\t\tpackage\n\t\t\t\t\t\u003c/b\u003e\n\t\t\t\t\u003c/p\u003e\n\t\t\t\t\u003cblockquote\u003e\n\t\t\t\t\t\u003cp\u003e\n\t\t\t\t\t\t\u003cb\u003e\n\t\t\t\t\t\t\tBox\n\t\t\t\t\t\t\u003c/b\u003e\n\t\t\t\t\t\u003c/p\u003e\n\t\t\t\t\t\u003cblockquote\u003e\n\t\t\t\t\t\t\u003cp\u003e\n\t\t\t\t\t\t\t\u003cb\u003e\n\t\t\t\t\t\t\t\tInner box for Powder and Solution\n\t\t\t\t\t\t\t\u003c/b\u003e\n\t\t\t\t\t\t\u003c/p\u003e\n\t\t\t\t\t\t\u003cblockquote\u003e\n\t\t\t\t\t\t\t\u003cp\u003e\n\t\t\t\t\t\t\t\t\u003cb\u003e\n\t\t\t\t\t\t\t\t\tSachet\n\t\t\t\t\t\t\t\t\u003c/b\u003e\n\t\t\t\t\t\t\t\u003c/p\u003e\n\t\t\t\t\t\t\t\u003cblockquote\u003e\n\t\t\t\t\t\t\t\t\u003cp\u003e\n\t\t\t\t\t\t\t\t\t\u003cb\u003e\n\t\t\t\t\t\t\t\t\t\tItem\n\t\t\t\t\t\t\t\t\t\u003c/b\u003e\n\t\t\t\t\t\t\t\t\t:\n\t\t\t\t\t\t\t\t\t\u003ca href\u003d\"#liquidItem\"\u003e\n\t\t\t\t\t\t\t\t\t\tPowder for Solution for Injection\n\t\t\t\t\t\t\t\t\t\u003c/a\u003e\n\t\t\t\t\t\t\t\t\u003c/p\u003e\n\t\t\t\t\t\t\t\t\u003cp\u003e\n\t\t\t\t\t\t\t\t\t\u003cb\u003e\n\t\t\t\t\t\t\t\t\t\tAmount\n\t\t\t\t\t\t\t\t\t\u003c/b\u003e\n\t\t\t\t\t\t\t\t\t: 5 mg\n\t\t\t\t\t\t\t\t\u003c/p\u003e\n\t\t\t\t\t\t\t\t\u003cp\u003e\n\t\t\t\t\t\t\t\t\t\u003cb\u003e\n\t\t\t\t\t\t\t\t\t\tIngredient\n\t\t\t\t\t\t\t\t\t\u003c/b\u003e\n\t\t\t\t\t\t\t\t\t: Wondersubstance\n\t\t\t\t\t\t\t\t\u003c/p\u003e\n\t\t\t\t\t\t\t\u003c/blockquote\u003e\n\t\t\t\t\t\t\u003c/blockquote\u003e\n\t\t\t\t\t\t\u003cblockquote\u003e\n\t\t\t\t\t\t\t\u003cp\u003e\n\t\t\t\t\t\t\t\t\u003cb\u003e\n\t\t\t\t\t\t\t\t\tBottle\n\t\t\t\t\t\t\t\t\u003c/b\u003e\n\t\t\t\t\t\t\t\u003c/p\u003e\n\t\t\t\t\t\t\t\u003cblockquote\u003e\n\t\t\t\t\t\t\t\t\u003cp\u003e\n\t\t\t\t\t\t\t\t\t\u003cb\u003e\n\t\t\t\t\t\t\t\t\t\tItem\n\t\t\t\t\t\t\t\t\t\u003c/b\u003e\n\t\t\t\t\t\t\t\t\t:\n\t\t\t\t\t\t\t\t\t\u003ca href\u003d\"#liquidItem\"\u003e\n\t\t\t\t\t\t\t\t\t\tSolvent\n\t\t\t\t\t\t\t\t\t\u003c/a\u003e\n\t\t\t\t\t\t\t\t\u003c/p\u003e\n\t\t\t\t\t\t\t\t\u003cp\u003e\n\t\t\t\t\t\t\t\t\t\u003cb\u003e\n\t\t\t\t\t\t\t\t\t\tAmount\n\t\t\t\t\t\t\t\t\t\u003c/b\u003e\n\t\t\t\t\t\t\t\t\t: 20 ml\n\t\t\t\t\t\t\t\t\u003c/p\u003e\n\t\t\t\t\t\t\t\t\u003cp\u003e\n\t\t\t\t\t\t\t\t\t\u003cb\u003e\n\t\t\t\t\t\t\t\t\t\tIngredient\n\t\t\t\t\t\t\t\t\t\u003c/b\u003e\n\t\t\t\t\t\t\t\t\t: Distilled Water\n\t\t\t\t\t\t\t\t\u003c/p\u003e\n\t\t\t\t\t\t\t\u003c/blockquote\u003e\n\t\t\t\t\t\t\u003c/blockquote\u003e\n\t\t\t\t\t\u003c/blockquote\u003e\n\t\t\t\t\t\u003cblockquote\u003e\n\t\t\t\t\t\t\u003cp\u003e\n\t\t\t\t\t\t\t\u003cb\u003e\n\t\t\t\t\t\t\t\tFoil bag\n\t\t\t\t\t\t\t\u003c/b\u003e\n\t\t\t\t\t\t\u003c/p\u003e\n\t\t\t\t\t\t\u003cblockquote\u003e\n\t\t\t\t\t\t\t\u003cp\u003e\n\t\t\t\t\t\t\t\t\u003cb\u003e\n\t\t\t\t\t\t\t\t\tDevice\n\t\t\t\t\t\t\t\t\u003c/b\u003e\n\t\t\t\t\t\t\t\t:\n\t\t\t\t\t\t\t\t\u003ca href\u003d\"#syringeDevice\"\u003e\n\t\t\t\t\t\t\t\t\tSyringe\n\t\t\t\t\t\t\t\t\u003c/a\u003e\n\t\t\t\t\t\t\t\u003c/p\u003e\n\t\t\t\t\t\t\t\u003cp\u003e\n\t\t\t\t\t\t\t\t\u003cb\u003e\n\t\t\t\t\t\t\t\t\tamount\n\t\t\t\t\t\t\t\t\u003c/b\u003e\n\t\t\t\t\t\t\t\t: 1\n\t\t\t\t\t\t\t\u003c/p\u003e\n\t\t\t\t\t\t\u003c/blockquote\u003e\n\t\t\t\t\t\u003c/blockquote\u003e\n\t\t\t\t\u003c/blockquote\u003e\n\t\t\t\u003c/blockquote\u003e\n\t\t\t\u003cp\u003e\n\t\t\t\t\u003cb\u003e\n\t\t\t\t\tAdministrable Product\n\t\t\t\t\u003c/b\u003e\n\t\t\t\t:\n\t\t\t\u003c/p\u003e\n\t\t\t\u003cblockquote\u003e\n\t\t\t\t\u003cp\u003e\n\t\t\t\t\tWonderdrug, dose form: Solution For Injection\n\t\t\t\t\u003c/p\u003e\n\t\t\t\u003c/blockquote\u003e\n\t\t\t\u003ch3\u003e\n\t\t\t\tNames\n\t\t\t\u003c/h3\u003e\n\t\t\t\u003ctable class\u003d\"grid\"\u003e\n\t\t\t\t\u003ctr\u003e\n\t\t\t\t\t\u003ctd\u003e\n\t\t\t\t\t\t-\n\t\t\t\t\t\u003c/td\u003e\n\t\t\t\t\t\u003ctd\u003e\n\t\t\t\t\t\t\u003cb\u003e\n\t\t\t\t\t\t\tProduct Name\n\t\t\t\t\t\t\u003c/b\u003e\n\t\t\t\t\t\u003c/td\u003e\n\t\t\t\t\u003c/tr\u003e\n\t\t\t\t\u003ctr\u003e\n\t\t\t\t\t\u003ctd\u003e\n\t\t\t\t\t\t*\n\t\t\t\t\t\u003c/td\u003e\n\t\t\t\t\t\u003ctd\u003e\n\t\t\t\t\t\tWonderdrug+ liquid 20ml\n\t\t\t\t\t\u003c/td\u003e\n\t\t\t\t\u003c/tr\u003e\n\t\t\t\u003c/table\u003e\n\t\t\u003c/div\u003e"},"contained":[{"resourceType":"PackagedProductDefinition","id":"package","packageFor":[{"reference":"#"}],"packaging":{"packaging":[{"type":{"coding":[{"code":"cardboard box (outer)"}]},"packaging":[{"type":{"coding":[{"code":"cardboard box (inner)"}]},"packaging":[{"type":{"coding":[{"code":"sachet"}]},"containedItem":[{"item":{"reference":{"reference":"#powderItem"}},"amount":{"value":5,"unit":"g","system":"http://unitsofmeasure.org","code":"g"}}]},{"type":{"coding":[{"code":"bottle"}]},"containedItem":[{"item":{"reference":{"reference":"#solventItem"}},"amount":{"value":20,"unit":"ml","system":"http://unitsofmeasure.org","code":"mL"}}]}]},{"type":{"coding":[{"code":"foil bag"}]},"containedItem":[{"item":{"reference":{"reference":"#syringeDevice"}},"amount":{"value":1}}]}]}]}},{"resourceType":"ManufacturedItemDefinition","id":"solventItem","status":"active","manufacturedDoseForm":{"coding":[{"system":"http://example.org.uk/fhir/doseform","code":"solvent for powder for injection"}]}},{"resourceType":"ManufacturedItemDefinition","id":"powderItem","status":"active","manufacturedDoseForm":{"coding":[{"system":"http://example.org.uk/fhir/doseform","code":"powder for solution for injection"}]}},{"resourceType":"DeviceDefinition","id":"syringeDevice","classification":[{"type":{"text":"syringe"}}]},{"resourceType":"AdministrableProductDefinition","id":"administrable-form","status":"active","formOf":[{"reference":"#"}],"administrableDoseForm":{"coding":[{"code":"solution for injection"}]},"producedFrom":[{"reference":"#powderItem"},{"reference":"#solventItem"}],"routeOfAdministration":[{"code":{"coding":[{"system":"http://example.org.uk/fhir/route","code":"intramuscular"}]}}]}],"identifier":[{"system":"http://example.org.uk/fhir/product","value":"Wonderdrug+"}],"combinedPharmaceuticalDoseForm":{"coding":[{"system":"http://example.org.uk/fhir/doseform","code":"Powder and solution for injection with itegral syringe"}]},"name":[{"productName":"Wonderdrug liquid 20ml (integral syringe)"}]}
{"resourceType":"MedicinalProductDefinition","id":"example","text":{"status":"generated","div":"\u003cdiv xmlns\u003d\"http://www.w3.org/1999/xhtml\"\u003e\n\t\t\t\u003cp\u003e\u003cb\u003eGenerated Narrative\u003c/b\u003e\u003c/p\u003e\n\t\t\t\u003cp\u003e\u003cb\u003eId\u003c/b\u003e: example\u003c/p\u003e\n\t\t\t\u003cp\u003e\u003cb\u003eIdentifier\u003c/b\u003e: {mpid}\u003c/p\u003e\n\t\t\t\u003cp\u003e\u003cb\u003eClassification\u003c/b\u003e: \u003cspan title\u003d\"Codes: {http://ema.europa.eu/example/WHOAnatomicalTherapeuticChemicalATCClassificationSystem B01AF02}\"\u003eATC: B01AF02\u003c/span\u003e\u003c/p\u003e\n\t\t\t\u003cp\u003e\u003cb\u003eAttached Document\u003c/b\u003e: (SmPC)\u003c/p\u003e\n\t\t\t\u003cp\u003e\u003cb\u003eMaster File\u003c/b\u003e: (Pharmacovigilence Master File)\u003c/p\u003e\n\t\t\t\u003cp\u003e\u003cb\u003eProduct Name\u003c/b\u003e: Equilidem 2.5 mg film-coated tablets\u003c/p\u003e\n\t\t\t\u003cblockquote\u003e\n\t\t\t\t\u003cp\u003e\u003cb\u003eName Part\u003c/b\u003e\u003c/p\u003e\u003cp\u003e\u003cb\u003epart\u003c/b\u003e:Equilidem\u003c/p\u003e\n\t\t\t\t\u003cp\u003e\u003cb\u003etype\u003c/b\u003e: \u003cspan title\u003d\"Codes: \"\u003eInvented\u003c/span\u003e\u003c/p\u003e\n\t\t\t\u003c/blockquote\u003e\n\t\t\t\u003cblockquote\u003e\n\t\t\t\t\u003cp\u003e\u003cb\u003eName Part\u003c/b\u003e\u003c/p\u003e\u003cp\u003e\u003cb\u003epart\u003c/b\u003e:2.5 mg\u003c/p\u003e\n\t\t\t\t\u003cp\u003e\u003cb\u003etype\u003c/b\u003e: \u003cspan title\u003d\"Codes: \"\u003eStrength\u003c/span\u003e\u003c/p\u003e\n\t\t\t\u003c/blockquote\u003e\n\t\t\t\u003cblockquote\u003e\n\t\t\t\t\u003cp\u003e\u003cb\u003eName Part\u003c/b\u003e\u003c/p\u003e\n\t\t\t\t\u003cp\u003e\u003cb\u003epart\u003c/b\u003e:film-coated tablets\u003c/p\u003e\n\t\t\t\t\u003cp\u003e\u003cb\u003etype\u003c/b\u003e: \u003cspan title\u003d\"Codes: \"\u003eForm\u003c/span\u003e\u003c/p\u003e\n\t\t\t\t\u003cp\u003e\u003cb\u003eCountry \u0026amp; Languages\u003c/b\u003e\u003c/p\u003e\n\t\t\t\t\u003ctable class\u003d\"grid\"\u003e\n\t\t\t\t\t\u003ctr\u003e\n\t\t\t\t\t\t\u003ctd\u003e-\u003c/td\u003e\n\t\t\t\t\t\t\u003ctd\u003e\u003cb\u003eCountry\u003c/b\u003e\u003c/td\u003e\n\t\t\t\t\t\t\u003ctd\u003e\u003cb\u003eJurisdiction\u003c/b\u003e\u003c/td\u003e\n\t\t\t\t\t\t\u003ctd\u003e\u003cb\u003eLanguage\u003c/b\u003e\u003c/td\u003e\n\t\t\t\t\t\u003c/tr\u003e\n\t\t\t\t\t\u003ctr\u003e\n\t\t\t\t\t\t\u003ctd\u003e*\u003c/td\u003e\n\t\t\t\t\t\t\u003ctd\u003e\u003cspan title\u003d\"Codes: {http://ema.europa.eu/example/countryCode EU}\"\u003eEU\u003c/span\u003e\u003c/td\u003e\n\t\t\t\t\t\t\u003ctd\u003e\u003cspan title\u003d\"Codes: {http://ema.europa.eu/example/jurisdictionCode EU}\"\u003eEU\u003c/span\u003e\u003c/td\u003e\n\t\t\t\t\t\t\u003ctd\u003e\u003cspan title\u003d\"Codes: {urn:ietf:bcp:47}\"\u003eEN\u003c/span\u003e\u003c/td\u003e\n\t\t\t\t\t\u003c/tr\u003e\n\t\t\t\t\u003c/table\u003e\n\t\t\t\u003c/blockquote\u003e\n\t\t\t\u003cp\u003e\u003cb\u003eManufacturing \u0026amp; Business Operations\u003c/b\u003e\u003c/p\u003e\n\t\t\t\u003ctable class\u003d\"grid\"\u003e\n\t\t\t\t\u003ctr\u003e\n\t\t\t\t\t\u003ctd\u003e-\u003c/td\u003e\n\t\t\t\t\t\u003ctd\u003e\u003cb\u003eType\u003c/b\u003e\u003c/td\u003e\n\t\t\t\t\t\u003ctd\u003e\u003cb\u003eEffectiveDate\u003c/b\u003e\u003c/td\u003e\n\t\t\t\t\t\u003ctd\u003e\u003cb\u003eAuthorization\u003c/b\u003e\u003c/td\u003e\n\t\t\t\t\u003c/tr\u003e\n\t\t\t\t\u003ctr\u003e\n\t\t\t\t\t\u003ctd\u003e*\u003c/td\u003e\n\t\t\t\t\t\u003ctd\u003eBatch Release\u003c/td\u003e\n\t\t\t\t\t\u003ctd\u003e2013-03-15 --\u0026gt; (ongoing)\u003c/td\u003e\n\t\t\t\t\t\u003ctd\u003e\u003cspan\u003e1324TZ\u003c/span\u003e\u003c/td\u003e\n\t\t\t\t\u003c/tr\u003e\n\t\t\t\u003c/table\u003e\n\t\t\u003c/div\u003e"},"identifier":[{"system":"http://ema.europa.eu/example/MPID","value":"{mpid}"}],"classification":[{"coding":[{"system":"http://ema.europa.eu/example/WHOAnatomicalTherapeuticChemicalATCClassificationSystem","code":"B01AF02"}]}],"attachedDocument":[{"reference":"DocumentReference/example"}],"masterFile":[{"reference":"DocumentReference/example"}],"name":[{"productName":"Equilidem 2.5 mg film-coated tablets","part":[{"part":"Equilidem","type":{"coding":[{"code":"INV"}]}},{"part":"2.5 mg","type":{"coding":[{"code":"STR"}]}},{"part":"film-coated tablets","type":{"coding":[{"code":"FRM"}]}}],"usage":[{"country":{"coding":[{"system":"http://ema.europa.eu/example/countryCode","code":"EU"}]},"jurisdiction":{"coding":[{"system":"http://ema.europa.eu/example/jurisdictionCode","code":"EU"}]},"language":{"coding":[{"system":"urn:ietf:bcp:47","code":"en"}]}}]}],"operation":[{"type":{"concept":{"coding":[{"system":"http://ema.europa.eu/example/manufacturingOperationType","code":"Batchrelease"}]}},"effectiveDate":{"start":"2013-03-15"}}]}
{"resourceType":"MedicinalProductDefinition","id":"drug-combo-product-bundle-mp","text":{"status":"generated","div":"\u003cdiv xmlns\u003d\"http://www.w3.org/1999/xhtml\"\u003e\n\t\t\t\t\t\t\u003cp\u003e\n\t\t\t\t\t\t\t\u003cb\u003e\n\t\t\t\t\t\t\t\tGenerated Narrative\n\t\t\t\t\t\t\t\u003c/b\u003e\n\t\t\t\t\t\t\u003c/p\u003e\n\t\t\t\t\t\t\u003cp\u003e\n\t\t\t\t\t\t\t\u003cb\u003e\n\t\t\t\t\t\t\t\tid\n\t\t\t\t\t\t\t\u003c/b\u003e\n\t\t\t\t\t\t\t: drug-combo-product\n\t\t\t\t\t\t\u003c/p\u003e\n\t\t\t\t\t\t\u003cp\u003e\n\t\t\t\t\t\t\t\u003cb\u003e\n\t\t\t\t\t\t\t\tidentifier\n\t\t\t\t\t\t\t\u003c/b\u003e\n\t\t\t\t\t\t\t: id: ThrushTreatCombo\n\t\t\t\t\t\t\u003c/p\u003e\n\t\t\t\t\t\t\u003cp\u003e\n\t\t\t\t\t\t\t\u003cb\u003e\n\t\t\t\t\t\t\t\tcombinedPharmaceuticalDoseForm\n\t\t\t\t\t\t\t\u003c/b\u003e\n\t\t\t\t\t\t\t:\n\t\t\t\t\t\t\t\u003cspan title\u003d\"Codes: {http://example.org.uk/fhir/doseform Tablet and Cream for topical application}\"\u003e\n\t\t\t\t\t\t\t\tTablet and Cream for topical application\n\t\t\t\t\t\t\t\u003c/span\u003e\n\t\t\t\t\t\t\u003c/p\u003e\n\t\t\t\t\t\t\u003cp\u003e\n\t\t\t\t\t\t\t\u003cb\u003e\n\t\t\t\t\t\t\t\tpackagedMedicinalProduct\n\t\t\t\t\t\t\t\u003c/b\u003e\n\t\t\t\t\t\t\t:\n\t\t\t\t\t\t\t\u003ca name\u003d\"packageCombo\"/\u003e\n\t\t\t\t\t\t\u003c/p\u003e\n\t\t\t\t\t\t\u003cblockquote\u003e\n\t\t\t\t\t\t\t\u003cp\u003e\n\t\t\t\t\t\t\t\t\u003cb\u003e\n\t\t\t\t\t\t\t\t\tid\n\t\t\t\t\t\t\t\t\u003c/b\u003e\n\t\t\t\t\t\t\t\t:packageCombo\n\t\t\t\t\t\t\t\u003c/p\u003e\n\t\t\t\t\t\t\t\u003cblockquote\u003e\n\t\t\t\t\t\t\t\t\u003cp\u003e\n\t\t\t\t\t\t\t\t\t\u003cb\u003e\n\t\t\t\t\t\t\t\t\t\tpackage (outer)\n\t\t\t\t\t\t\t\t\t\u003c/b\u003e\n\t\t\t\t\t\t\t\t\u003c/p\u003e\n\t\t\t\t\t\t\t\t\u003cp\u003e\n\t\t\t\t\t\t\t\t\t\u003cb\u003e\n\t\t\t\t\t\t\t\t\t\ttype\n\t\t\t\t\t\t\t\t\t\u003c/b\u003e\n\t\t\t\t\t\t\t\t\t:\n\t\t\t\t\t\t\t\t\t\u003cspan title\u003d\"Codes: \"\u003e\n\t\t\t\t\t\t\t\t\t\tBox\n\t\t\t\t\t\t\t\t\t\u003c/span\u003e\n\t\t\t\t\t\t\t\t\u003c/p\u003e\n\t\t\t\t\t\t\t\t\u003cblockquote\u003e\n\t\t\t\t\t\t\t\t\t\u003cp\u003e\n\t\t\t\t\t\t\t\t\t\t\u003cb\u003e\n\t\t\t\t\t\t\t\t\t\t\tPackage (inner 1)\n\t\t\t\t\t\t\t\t\t\t\u003c/b\u003e\n\t\t\t\t\t\t\t\t\t\u003c/p\u003e\n\t\t\t\t\t\t\t\t\t\u003cp\u003e\n\t\t\t\t\t\t\t\t\t\t\u003cb\u003e\n\t\t\t\t\t\t\t\t\t\t\tType\n\t\t\t\t\t\t\t\t\t\t\u003c/b\u003e\n\t\t\t\t\t\t\t\t\t\t: Blister pack\n\t\t\t\t\t\t\t\t\t\u003c/p\u003e\n\t\t\t\t\t\t\t\t\t\u003cp\u003e\n\t\t\t\t\t\t\t\t\t\t\u003cb\u003e\n\t\t\t\t\t\t\t\t\t\t\tItems quantity\n\t\t\t\t\t\t\t\t\t\t\u003c/b\u003e\n\t\t\t\t\t\t\t\t\t\t: 1\n\t\t\t\t\t\t\t\t\t\u003c/p\u003e\n\t\t\t\t\t\t\t\t\t\u003cblockquote\u003e\n\t\t\t\t\t\t\t\t\t\t\u003cp\u003e\n\t\t\t\t\t\t\t\t\t\t\t\u003cb\u003e\n\t\t\t\t\t\t\t\t\t\t\t\tForm\n\t\t\t\t\t\t\t\t\t\t\t\u003c/b\u003e\n\t\t\t\t\t\t\t\t\t\t\t: Tablet\n\t\t\t\t\t\t\t\t\t\t\u003c/p\u003e\n\t\t\t\t\t\t\t\t\t\t\u003cblockquote\u003e\n\t\t\t\t\t\t\t\t\t\t\t\u003cp\u003e\n\t\t\t\t\t\t\t\t\t\t\t\t\u003cb\u003e\n\t\t\t\t\t\t\t\t\t\t\t\t\tIngredient\n\t\t\t\t\t\t\t\t\t\t\t\t\u003c/b\u003e\n\t\t\t\t\t\t\t\t\t\t\t\t: 150mg fluconazole\n\t\t\t\t\t\t\t\t\t\t\t\u003c/p\u003e\n\t\t\t\t\t\t\t\t\t\t\u003c/blockquote\u003e\n\t\t\t\t\t\t\t\t\t\u003c/blockquote\u003e\n\t\t\t\t\t\t\t\t\u003c/blockquote\u003e\n\t\t\t\t\t\t\t\t\u003cblockquote\u003e\n\t\t\t\t\t\t\t\t\t\u003cp\u003e\n\t\t\t\t\t\t\t\t\t\t\u003cb\u003e\n\t\t\t\t\t\t\t\t\t\t\tPackage (inner 2)\n\t\t\t\t\t\t\t\t\t\t\u003c/b\u003e\n\t\t\t\t\t\t\t\t\t\u003c/p\u003e\n\t\t\t\t\t\t\t\t\t\u003cp\u003e\n\t\t\t\t\t\t\t\t\t\t\u003cb\u003e\n\t\t\t\t\t\t\t\t\t\t\tType\n\t\t\t\t\t\t\t\t\t\t\u003c/b\u003e\n\t\t\t\t\t\t\t\t\t\t: Tube\n\t\t\t\t\t\t\t\t\t\u003c/p\u003e\n\t\t\t\t\t\t\t\t\t\u003cp\u003e\n\t\t\t\t\t\t\t\t\t\t\u003cb\u003e\n\t\t\t\t\t\t\t\t\t\t\tItems quantity\n\t\t\t\t\t\t\t\t\t\t\u003c/b\u003e\n\t\t\t\t\t\t\t\t\t\t: 20g\n\t\t\t\t\t\t\t\t\t\u003c/p\u003e\n\t\t\t\t\t\t\t\t\t\u003cblockquote\u003e\n\t\t\t\t\t\t\t\t\t\t\u003cp\u003e\n\t\t\t\t\t\t\t\t\t\t\t\u003cb\u003e\n\t\t\t\t\t\t\t\t\t\t\t\tPackage Item\n\t\t\t\t\t\t\t\t\t\t\t\u003c/b\u003e\n\t\t\t\t\t\t\t\t\t\t\t: Cap\n\t\t\t\t\t\t\t\t\t\t\u003c/p\u003e\n\t\t\t\t\t\t\t\t\t\u003c/blockquote\u003e\n\t\t\t\t\t\t\t\t\t\u003cblockquote\u003e\n\t\t\t\t\t\t\t\t\t\t\u003cp\u003e\n\t\t\t\t\t\t\t\t\t\t\t\u003cb\u003e\n\t\t\t\t\t\t\t\t\t\t\t\tForm\n\t\t\t\t\t\t\t\t\t\t\t\u003c/b\u003e\n\t\t\t\t\t\t\t\t\t\t\t: Cream for topical application\n\t\t\t\t\t\t\t\t\t\t\u003c/p\u003e\n\t\t\t\t\t\t\t\t\t\t\u003cblockquote\u003e\n\t\t\t\t\t\t\t\t\t\t\t\u003cp\u003e\n\t\t\t\t\t\t\t\t\t\t\t\t\u003cb\u003e\n\t\t\t\t\t\t\t\t\t\t\t\t\tIngredient\n\t\t\t\t\t\t\t\t\t\t\t\t\u003c/b\u003e\n\t\t\t\t\t\t\t\t\t\t\t\t: 2% w/w clotrimazole\n\t\t\t\t\t\t\t\t\t\t\t\u003c/p\u003e\n\t\t\t\t\t\t\t\t\t\t\u003c/blockquote\u003e\n\t\t\t\t\t\t\t\t\t\u003c/blockquote\u003e\n\t\t\t\t\t\t\t\t\u003c/blockquote\u003e\n\t\t\t\t\t\t\t\u003c/blockquote\u003e\n\t\t\t\t\t\t\u003c/blockquote\u003e\n\t\t\t\t\t\t\u003ch3\u003e\n\t\t\t\t\t\t\tNames\n\t\t\t\t\t\t\u003c/h3\u003e\n\t\t\t\t\t\t\u003ctable class\u003d\"grid\"\u003e\n\t\t\t\t\t\t\t\u003ctr\u003e\n\t\t\t\t\t\t\t\t\u003ctd\u003e\n\t\t\t\t\t\t\t\t\t-\n\t\t\t\t\t\t\t\t\u003c/td\u003e\n\t\t\t\t\t\t\t\t\u003ctd\u003e\n\t\t\t\t\t\t\t\t\t\u003cb\u003e\n\t\t\t\t\t\t\t\t\t\tProductName\n\t\t\t\t\t\t\t\t\t\u003c/b\u003e\n\t\t\t\t\t\t\t\t\u003c/td\u003e\n\t\t\t\t\t\t\t\u003c/tr\u003e\n\t\t\t\t\t\t\t\u003ctr\u003e\n\t\t\t\t\t\t\t\t\u003ctd\u003e\n\t\t\t\t\t\t\t\t\t*\n\t\t\t\t\t\t\t\t\u003c/td\u003e\n\t\t\t\t\t\t\t\t\u003ctd\u003e\n\t\t\t\t\t\t\t\t\tThrushTreat Combo\n\t\t\t\t\t\t\t\t\u003c/td\u003e\n\t\t\t\t\t\t\t\u003c/tr\u003e\n\t\t\t\t\t\t\u003c/table\u003e\n\t\t\t\t\t\u003c/div\u003e"},"identifier":[{"system":"http://example.org.uk/fhir/product","value":"ThrushTreatCombo"}],"combinedPharmaceuticalDoseForm":{"coding":[{"system":"http://example.org.uk/fhir/doseform","code":"Tablet and Cream for topical application"}]},"name":[{"productName":"ThrushTreat Combo"}]}
{"resourceType":"MedicinalProductDefinition","id":"equilidem-with-ing-and-auth","text":{"status":"generated","div":"\u003cdiv xmlns\u003d\"http://www.w3.org/1999/xhtml\"\u003e\n\t\t\t\u003cp\u003e\n\t\t\t\t\u003cb\u003e\n\t\t\t\t\tGenerated Narrative\n\t\t\t\t\u003c/b\u003e\n\t\t\t\u003c/p\u003e\n\t\t\t\u003cp\u003e\n\t\t\t\t\u003cb\u003e\n\t\t\t\t\tId\n\t\t\t\t\u003c/b\u003e\n\t\t\t\t: equilidem-with-ing-and-auth\n\t\t\t\u003c/p\u003e\n\t\t\t\u003cp\u003e\n\t\t\t\t\u003cb\u003e\n\t\t\t\t\tIdentifier\n\t\t\t\t\u003c/b\u003e\n\t\t\t\t: Equilidem25\n\t\t\t\u003c/p\u003e\n\t\t\t\u003cp\u003e\n\t\t\t\t\u003cb\u003e\n\t\t\t\t\tCombined Pharmaceutical Dose Form\n\t\t\t\t\u003c/b\u003e\n\t\t\t\t:\n\t\t\t\t\u003cspan title\u003d\"Codes: {http://example.org.uk/fhir/dosefom tablet}\"\u003e\n\t\t\t\t\ttablet\n\t\t\t\t\u003c/span\u003e\n\t\t\t\u003c/p\u003e\n\t\t\t\u003cp\u003e\n\t\t\t\t\u003cb\u003e\n\t\t\t\t\tIndication\n\t\t\t\t\u003c/b\u003e\n\t\t\t\t: Prevention of venous thromboembolic events (VTE) in adult patients who have undergone elective hip or knee replacement surgery. Prevention of stroke and systemic embolism in adult patients with non-valvular atrial fibrillation (NVAF), with one or more risk factors, such as prior stroke or transient ischaemic attack (TIA); age ≥ 75 years; hypertension; diabetes mellitus; symptomatic heart failure (NYHA Class \u0026gt;\u003d II). Treatment of deep vein thrombosis (DVT) and pulmonary embolism (PE), and prevention of recurrent DVT and PE in adults.\n\t\t\t\u003c/p\u003e\n\t\t\t\u003cp\u003e\n\t\t\t\t\u003cb\u003e\n\t\t\t\t\tLegal Status Of Supply\n\t\t\t\t\u003c/b\u003e\n\t\t\t\t:\n\t\t\t\t\u003cspan title\u003d\"Codes: {http://example.org.uk/fhir/legalstatusofsupply POM}\"\u003e\n\t\t\t\t\tPrescription only medicine\n\t\t\t\t\u003c/span\u003e\n\t\t\t\u003c/p\u003e\n\t\t\t\u003cp\u003e\n\t\t\t\t\u003cb\u003e\n\t\t\t\t\tclassification\n\t\t\t\t\u003c/b\u003e\n\t\t\t\t:\n\t\t\t\t\u003cspan title\u003d\"Codes: {http://www.whocc.no/atc/example B01A}\"\u003e\n\t\t\t\t\tB01A\n\t\t\t\t\u003c/span\u003e\n\t\t\t\u003c/p\u003e\n\t\t\t\u003cp\u003e\n\t\t\t\t\u003cb\u003e\n\t\t\t\t\tIngredients\n\t\t\t\t\u003c/b\u003e\n\t\t\t\t:\n\t\t\t\u003c/p\u003e\n\t\t\t\u003cblockquote\u003e\n\t\t\t\t\u003cp\u003e\n\t\t\t\t\t\u003cb\u003e\n\t\t\t\t\t\tRole\n\t\t\t\t\t\u003c/b\u003e\n\t\t\t\t\t:\n\t\t\t\t\t\u003cspan title\u003d\"Codes: {http://example.org.uk/fhir/ingredientType active}\"\u003e\n\t\t\t\t\t\tactive\n\t\t\t\t\t\u003c/span\u003e\n\t\t\t\t\u003c/p\u003e\n\t\t\t\t\u003cblockquote\u003e\n\t\t\t\t\t\u003cp\u003e\n\t\t\t\t\t\t\u003cb\u003e\n\t\t\t\t\t\t\tsubstance\n\t\t\t\t\t\t\u003c/b\u003e\n\t\t\t\t\t\t:\n\t\t\t\t\t\t\u003cspan title\u003d\"Codes: {http://example.org.uk/fhir/substances 123456}\"\u003e\n\t\t\t\t\t\t\tEquilidonium Phosphate\n\t\t\t\t\t\t\u003c/span\u003e\n\t\t\t\t\t\u003c/p\u003e\n\t\t\t\t\t\u003ctable class\u003d\"grid\"\u003e\n\t\t\t\t\t\t\u003ctr\u003e\n\t\t\t\t\t\t\t\u003ctd\u003e\n\t\t\t\t\t\t\t\t-\n\t\t\t\t\t\t\t\u003c/td\u003e\n\t\t\t\t\t\t\t\u003ctd\u003e\n\t\t\t\t\t\t\t\t\u003cb\u003e\n\t\t\t\t\t\t\t\t\tPresentation\n\t\t\t\t\t\t\t\t\u003c/b\u003e\n\t\t\t\t\t\t\t\u003c/td\u003e\n\t\t\t\t\t\t\u003c/tr\u003e\n\t\t\t\t\t\t\u003ctr\u003e\n\t\t\t\t\t\t\t\u003ctd\u003e\n\t\t\t\t\t\t\t\t*\n\t\t\t\t\t\t\t\u003c/td\u003e\n\t\t\t\t\t\t\t\u003ctd\u003e\n\t\t\t\t\t\t\t\t22 ml/1 tablet\n\t\t\t\t\t\t\t\u003c/td\u003e\n\t\t\t\t\t\t\u003c/tr\u003e\n\t\t\t\t\t\u003c/table\u003e\n\t\t\t\t\u003c/blockquote\u003e\n\t\t\t\u003c/blockquote\u003e\n\t\t\t\u003cblockquote\u003e\n\t\t\t\t\u003cp\u003e\n\t\t\t\t\t\u003cb\u003e\n\t\t\t\t\t\tRole\n\t\t\t\t\t\u003c/b\u003e\n\t\t\t\t\t:\n\t\t\t\t\t\u003cspan title\u003d\"Codes: {http://example.org.uk/fhir/ingredientType excipient}\"\u003e\n\t\t\t\t\t\texcipient\n\t\t\t\t\t\u003c/span\u003e\n\t\t\t\t\u003c/p\u003e\n\t\t\t\t\u003cblockquote\u003e\n\t\t\t\t\t\u003cp\u003e\n\t\t\t\t\t\t\u003cb\u003e\n\t\t\t\t\t\t\tsubstance\n\t\t\t\t\t\t\u003c/b\u003e\n\t\t\t\t\t\t:\n\t\t\t\t\t\t\u003cspan title\u003d\"Codes: {http://example.org.uk/fhir/substances 456789}\"\u003e\n\t\t\t\t\t\t\tCalcium Carbonate\n\t\t\t\t\t\t\u003c/span\u003e\n\t\t\t\t\t\u003c/p\u003e\n\t\t\t\t\t\u003ctable class\u003d\"grid\"\u003e\n\t\t\t\t\t\t\u003ctr\u003e\n\t\t\t\t\t\t\t\u003ctd\u003e\n\t\t\t\t\t\t\t\t-\n\t\t\t\t\t\t\t\u003c/td\u003e\n\t\t\t\t\t\t\t\u003ctd\u003e\n\t\t\t\t\t\t\t\t\u003cb\u003e\n\t\t\t\t\t\t\t\t\tPresentation\n\t\t\t\t\t\t\t\t\u003c/b\u003e\n\t\t\t\t\t\t\t\u003c/td\u003e\n\t\t\t\t\t\t\u003c/tr\u003e\n\t\t\t\t\t\t\u003ctr\u003e\n\t\t\t\t\t\t\t\u003ctd\u003e\n\t\t\t\t\t\t\t\t*\n\t\t\t\t\t\t\t\u003c/td\u003e\n\t\t\t\t\t\t\t\u003ctd\u003e\n\t\t\t\t\t\t\t\t3 ml/tablet\n\t\t\t\t\t\t\t\u003c/td\u003e\n\t\t\t\t\t\t\u003c/tr\u003e\n\t\t\t\t\t\u003c/table\u003e\n\t\t\t\t\u003c/blockquote\u003e\n\t\t\t\u003c/blockquote\u003e\n\t\t\t\u003ch3\u003e\n\t\t\t\tNames\n\t\t\t\u003c/h3\u003e\n\t\t\t\u003ctable class\u003d\"grid\"\u003e\n\t\t\t\t\u003ctr\u003e\n\t\t\t\t\t\u003ctd\u003e\n\t\t\t\t\t\t-\n\t\t\t\t\t\u003c/td\u003e\n\t\t\t\t\t\u003ctd\u003e\n\t\t\t\t\t\t\u003cb\u003e\n\t\t\t\t\t\t\tProductName\n\t\t\t\t\t\t\u003c/b\u003e\n\t\t\t\t\t\u003c/td\u003e\n\t\t\t\t\u003c/tr\u003e\n\t\t\t\t\u003ctr\u003e\n\t\t\t\t\t\u003ctd\u003e\n\t\t\t\t\t\t*\n\t\t\t\t\t\u003c/td\u003e\n\t\t\t\t\t\u003ctd\u003e\n\t\t\t\t\t\tEquilidem 2.5 mg film-coated tablets\n\t\t\t\t\t\u003c/td\u003e\n\t\t\t\t\u003c/tr\u003e\n\t\t\t\u003c/table\u003e\n\t\t\t\u003ch3\u003e\n\t\t\t\tCross References\n\t\t\t\u003c/h3\u003e\n\t\t\t\u003ctable class\u003d\"grid\"\u003e\n\t\t\t\t\u003ctr\u003e\n\t\t\t\t\t\u003ctd\u003e\n\t\t\t\t\t\t-\n\t\t\t\t\t\u003c/td\u003e\n\t\t\t\t\t\u003ctd\u003e\n\t\t\t\t\t\t\u003cb\u003e\n\t\t\t\t\t\t\tProduct\n\t\t\t\t\t\t\u003c/b\u003e\n\t\t\t\t\t\u003c/td\u003e\n\t\t\t\t\u003c/tr\u003e\n\t\t\t\t\u003ctr\u003e\n\t\t\t\t\t\u003ctd\u003e\n\t\t\t\t\t\t*\n\t\t\t\t\t\u003c/td\u003e\n\t\t\t\t\t\u003ctd\u003e\n\t\t\t\t\t\tLink to generic equivalent\n\t\t\t\t\t\u003c/td\u003e\n\t\t\t\t\u003c/tr\u003e\n\t\t\t\u003c/table\u003e\n\t\t\t\u003ch3\u003e\n\t\t\t\tManufacturing Business Operations\n\t\t\t\u003c/h3\u003e\n\t\t\t\u003ctable class\u003d\"grid\"\u003e\n\t\t\t\t\u003ctr\u003e\n\t\t\t\t\t\u003ctd\u003e\n\t\t\t\t\t\t-\n\t\t\t\t\t\u003c/td\u003e\n\t\t\t\t\t\u003ctd\u003e\n\t\t\t\t\t\t\u003cb\u003e\n\t\t\t\t\t\t\tManufacturer\n\t\t\t\t\t\t\u003c/b\u003e\n\t\t\t\t\t\u003c/td\u003e\n\t\t\t\t\u003c/tr\u003e\n\t\t\t\t\u003ctr\u003e\n\t\t\t\t\t\u003ctd\u003e\n\t\t\t\t\t\t*\n\t\t\t\t\t\u003c/td\u003e\n\t\t\t\t\t\u003ctd\u003e\n\t\t\t\t\t\t\u003cspan\u003e\n\t\t\t\t\t\t\tEquiliDrugCo Processing Inc.\n\t\t\t\t\t\t\u003c/span\u003e\n\t\t\t\t\t\u003c/td\u003e\n\t\t\t\t\u003c/tr\u003e\n\t\t\t\u003c/table\u003e\n\t\t\u003c/div\u003e"},"contained":[{"resourceType":"Ingredient","id":"EquilidoniumPhosphate","status":"active","for":[{"reference":"#"}],"role":{"coding":[{"system":"http://example.org.uk/fhir/ingredientType","code":"active"}]},"substance":{"code":{"concept":{"coding":[{"system":"http://example.org.uk/fhir/substances","code":"123456","display":"Equilidonium Phosphate"}]}},"strength":[{"presentationRatio":{"numerator":{"value":22,"unit":"ml","system":"http://unitsofmeasure.org","code":"mL"},"denominator":{"value":1,"unit":"tablet"}}}]}},{"resourceType":"Ingredient","id":"CalciumCarbonate","status":"active","for":[{"reference":"#"}],"role":{"coding":[{"system":"http://example.org.uk/fhir/ingredientType","code":"excipient"}]},"substance":{"code":{"concept":{"coding":[{"system":"http://example.org.uk/fhir/substances","code":"456789","display":"Calcium Carbonate"}]}},"strength":[{"presentationRatio":{"numerator":{"value":3,"unit":"ml","system":"http://unitsofmeasure.org","code":"mL"},"denominator":{"value":1,"unit":"tablet"}}}]}}],"identifier":[{"system":"http://example.org.uk/fhir/product","value":"Equilidem25"}],"combinedPharmaceuticalDoseForm":{"coding":[{"system":"http://example.org.uk/fhir/dosefom","code":"tablet"}]},"indication":"Prevention of venous thromboembolic events (VTE) in adult patients who have undergone elective hip or knee replacement surgery. Prevention of stroke and systemic embolism in adult patients with non-valvular atrial fibrillation (NVAF), with one or more risk factors, such as prior stroke or transient ischaemic attack (TIA); age ≥ 75 years; hypertension; diabetes mellitus; symptomatic heart failure (NYHA Class \u003e\u003d II). Treatment of deep vein thrombosis (DVT) and pulmonary embolism (PE), and prevention of recurrent DVT and PE in adults.","legalStatusOfSupply":{"coding":[{"system":"http://example.org.uk/fhir/legalstatusofsupply","code":"POM","display":"Prescription only medicine"}]},"classification":[{"coding":[{"system":"http://www.whocc.no/atc/example","code":"B01A"}]}],"name":[{"productName":"Equilidem 2.5 mg film-coated tablets"}],"crossReference":[{"product":{"reference":{"reference":"MedicinalProductDefinition/genericEquilidonium"}}}],"operation":[{"organization":[{"display":"EquiliDrugCo Processing Inc."}]}]}
{"resourceType":"MedicinalProductDefinition","id":"drug-combo-product","text":{"status":"generated","div":"\u003cdiv xmlns\u003d\"http://www.w3.org/1999/xhtml\"\u003e\n\t\t\t\u003cp\u003e\n\t\t\t\t\u003cb\u003e\n\t\t\t\t\tGenerated Narrative\n\t\t\t\t\u003c/b\u003e\n\t\t\t\u003c/p\u003e\n\t\t\t\u003cp\u003e\n\t\t\t\t\u003cb\u003e\n\t\t\t\t\tid\n\t\t\t\t\u003c/b\u003e\n\t\t\t\t: drug-combo-product\n\t\t\t\u003c/p\u003e\n\t\t\t\u003cp\u003e\n\t\t\t\t\u003cb\u003e\n\t\t\t\t\tidentifier\n\t\t\t\t\u003c/b\u003e\n\t\t\t\t: id: ThrushTreatCombo\n\t\t\t\u003c/p\u003e\n\t\t\t\u003cp\u003e\n\t\t\t\t\u003cb\u003e\n\t\t\t\t\tcombinedPharmaceuticalDoseForm\n\t\t\t\t\u003c/b\u003e\n\t\t\t\t:\n\t\t\t\t\u003cspan title\u003d\"Codes: {http://example.org.uk/fhir/doseform Tablet and Cream for topical application}\"\u003e\n\t\t\t\t\tTablet and Cream for topical application\n\t\t\t\t\u003c/span\u003e\n\t\t\t\u003c/p\u003e\n\t\t\t\u003cp\u003e\n\t\t\t\t\u003cb\u003e\n\t\t\t\t\tpackagedMedicinalProduct\n\t\t\t\t\u003c/b\u003e\n\t\t\t\t:\n\t\t\t\t\u003ca name\u003d\"packageCombo\"/\u003e\n\t\t\t\u003c/p\u003e\n\t\t\t\u003cblockquote\u003e\n\t\t\t\t\u003cp\u003e\n\t\t\t\t\t\u003cb\u003e\n\t\t\t\t\t\tid\n\t\t\t\t\t\u003c/b\u003e\n\t\t\t\t\t:packageCombo\n\t\t\t\t\u003c/p\u003e\n\t\t\t\t\u003cblockquote\u003e\n\t\t\t\t\t\u003cp\u003e\n\t\t\t\t\t\t\u003cb\u003e\n\t\t\t\t\t\t\tpackage (outer)\n\t\t\t\t\t\t\u003c/b\u003e\n\t\t\t\t\t\u003c/p\u003e\n\t\t\t\t\t\u003cp\u003e\n\t\t\t\t\t\t\u003cb\u003e\n\t\t\t\t\t\t\ttype\n\t\t\t\t\t\t\u003c/b\u003e\n\t\t\t\t\t\t:\n\t\t\t\t\t\t\u003cspan title\u003d\"Codes: \"\u003e\n\t\t\t\t\t\t\tBox\n\t\t\t\t\t\t\u003c/span\u003e\n\t\t\t\t\t\u003c/p\u003e\n\t\t\t\t\t\u003cblockquote\u003e\n\t\t\t\t\t\t\u003cp\u003e\n\t\t\t\t\t\t\t\u003cb\u003e\n\t\t\t\t\t\t\t\tPackage (inner 1)\n\t\t\t\t\t\t\t\u003c/b\u003e\n\t\t\t\t\t\t\u003c/p\u003e\n\t\t\t\t\t\t\u003cp\u003e\n\t\t\t\t\t\t\t\u003cb\u003e\n\t\t\t\t\t\t\t\tType\n\t\t\t\t\t\t\t\u003c/b\u003e\n\t\t\t\t\t\t\t: Blister pack\n\t\t\t\t\t\t\u003c/p\u003e\n\t\t\t\t\t\t\u003cp\u003e\n\t\t\t\t\t\t\t\u003cb\u003e\n\t\t\t\t\t\t\t\tItems quantity\n\t\t\t\t\t\t\t\u003c/b\u003e\n\t\t\t\t\t\t\t: 1\n\t\t\t\t\t\t\u003c/p\u003e\n\t\t\t\t\t\t\u003cblockquote\u003e\n\t\t\t\t\t\t\t\u003cp\u003e\n\t\t\t\t\t\t\t\t\u003cb\u003e\n\t\t\t\t\t\t\t\t\tForm\n\t\t\t\t\t\t\t\t\u003c/b\u003e\n\t\t\t\t\t\t\t\t: Tablet\n\t\t\t\t\t\t\t\u003c/p\u003e\n\t\t\t\t\t\t\t\u003cblockquote\u003e\n\t\t\t\t\t\t\t\t\u003cp\u003e\n\t\t\t\t\t\t\t\t\t\u003cb\u003e\n\t\t\t\t\t\t\t\t\t\tIngredient\n\t\t\t\t\t\t\t\t\t\u003c/b\u003e\n\t\t\t\t\t\t\t\t\t: 150mg fluconazole\n\t\t\t\t\t\t\t\t\u003c/p\u003e\n\t\t\t\t\t\t\t\u003c/blockquote\u003e\n\t\t\t\t\t\t\u003c/blockquote\u003e\n\t\t\t\t\t\u003c/blockquote\u003e\n\t\t\t\t\t\u003cblockquote\u003e\n\t\t\t\t\t\t\u003cp\u003e\n\t\t\t\t\t\t\t\u003cb\u003e\n\t\t\t\t\t\t\t\tPackage (inner 2)\n\t\t\t\t\t\t\t\u003c/b\u003e\n\t\t\t\t\t\t\u003c/p\u003e\n\t\t\t\t\t\t\u003cp\u003e\n\t\t\t\t\t\t\t\u003cb\u003e\n\t\t\t\t\t\t\t\tType\n\t\t\t\t\t\t\t\u003c/b\u003e\n\t\t\t\t\t\t\t: Tube\n\t\t\t\t\t\t\u003c/p\u003e\n\t\t\t\t\t\t\u003cp\u003e\n\t\t\t\t\t\t\t\u003cb\u003e\n\t\t\t\t\t\t\t\tItems quantity\n\t\t\t\t\t\t\t\u003c/b\u003e\n\t\t\t\t\t\t\t: 20g\n\t\t\t\t\t\t\u003c/p\u003e\n\t\t\t\t\t\t\u003cblockquote\u003e\n\t\t\t\t\t\t\t\u003cp\u003e\n\t\t\t\t\t\t\t\t\u003cb\u003e\n\t\t\t\t\t\t\t\t\tPackage Item\n\t\t\t\t\t\t\t\t\u003c/b\u003e\n\t\t\t\t\t\t\t\t: Cap\n\t\t\t\t\t\t\t\u003c/p\u003e\n\t\t\t\t\t\t\u003c/blockquote\u003e\n\t\t\t\t\t\t\u003cblockquote\u003e\n\t\t\t\t\t\t\t\u003cp\u003e\n\t\t\t\t\t\t\t\t\u003cb\u003e\n\t\t\t\t\t\t\t\t\tForm\n\t\t\t\t\t\t\t\t\u003c/b\u003e\n\t\t\t\t\t\t\t\t: Cream for topical application\n\t\t\t\t\t\t\t\u003c/p\u003e\n\t\t\t\t\t\t\t\u003cblockquote\u003e\n\t\t\t\t\t\t\t\t\u003cp\u003e\n\t\t\t\t\t\t\t\t\t\u003cb\u003e\n\t\t\t\t\t\t\t\t\t\tIngredient\n\t\t\t\t\t\t\t\t\t\u003c/b\u003e\n\t\t\t\t\t\t\t\t\t: 2% w/w clotrimazole\n\t\t\t\t\t\t\t\t\u003c/p\u003e\n\t\t\t\t\t\t\t\u003c/blockquote\u003e\n\t\t\t\t\t\t\u003c/blockquote\u003e\n\t\t\t\t\t\u003c/blockquote\u003e\n\t\t\t\t\u003c/blockquote\u003e\n\t\t\t\u003c/blockquote\u003e\n\t\t\t\u003ch3\u003e\n\t\t\t\tNames\n\t\t\t\u003c/h3\u003e\n\t\t\t\u003ctable class\u003d\"grid\"\u003e\n\t\t\t\t\u003ctr\u003e\n\t\t\t\t\t\u003ctd\u003e\n\t\t\t\t\t\t-\n\t\t\t\t\t\u003c/td\u003e\n\t\t\t\t\t\u003ctd\u003e\n\t\t\t\t\t\t\u003cb\u003e\n\t\t\t\t\t\t\tProductName\n\t\t\t\t\t\t\u003c/b\u003e\n\t\t\t\t\t\u003c/td\u003e\n\t\t\t\t\u003c/tr\u003e\n\t\t\t\t\u003ctr\u003e\n\t\t\t\t\t\u003ctd\u003e\n\t\t\t\t\t\t*\n\t\t\t\t\t\u003c/td\u003e\n\t\t\t\t\t\u003ctd\u003e\n\t\t\t\t\t\tThrushTreat Combo\n\t\t\t\t\t\u003c/td\u003e\n\t\t\t\t\u003c/tr\u003e\n\t\t\t\u003c/table\u003e\n\t\t\u003c/div\u003e"},"contained":[{"resourceType":"PackagedProductDefinition","id":"packageCombo","packageFor":[{"reference":"#"}],"packaging":{"type":{"coding":[{"code":"Box"}]},"packaging":[{"type":{"coding":[{"code":"blister pack"}]},"containedItem":[{"item":{"reference":{"reference":"#tabletItem"}},"amount":{"value":1}}]},{"type":{"coding":[{"code":"tube"}]},"containedItem":[{"item":{"reference":{"reference":"#creamItem"}},"amount":{"value":20,"unit":"g","system":"http://unitsofmeasure.org","code":"g"}}],"packaging":[{"type":{"coding":[{"code":"cap"}]}}]}]}},{"resourceType":"ManufacturedItemDefinition","id":"tabletItem","status":"active","manufacturedDoseForm":{"coding":[{"system":"http://example.org.uk/fhir/doseform","code":"tablet"}]}},{"resourceType":"ManufacturedItemDefinition","id":"creamItem","status":"active","manufacturedDoseForm":{"coding":[{"system":"http://example.org.uk/fhir/doseform","code":"Cream for topical application"}]}}],"identifier":[{"system":"http://example.org.uk/fhir/product","value":"ThrushTreatCombo"}],"combinedPharmaceuticalDoseForm":{"coding":[{"system":"http://example.org.uk/fhir/doseform","code":"Tablet and Cream for topical application"}]},"name":[{"productName":"ThrushTreat Combo"}]}
{"resourceType":"MedicinalProductDefinition","id":"Acetamin-500-20-generic","text":{"status":"generated","div":"\u003cdiv xmlns\u003d\"http://www.w3.org/1999/xhtml\"\u003e\u003cp\u003e\u003cb\u003eGenerated Narrative: MedicinalProductDefinition\u003c/b\u003e\u003ca name\u003d\"Acetamin-500-20-generic\"\u003e \u003c/a\u003e\u003c/p\u003e\u003cdiv style\u003d\"display: inline-block; background-color: #d9e0e7; padding: 6px; margin: 4px; border: 1px solid #8da1b4; border-radius: 5px; line-height: 60%\"\u003e\u003cp style\u003d\"margin-bottom: 0px\"\u003eResource MedicinalProductDefinition \u0026quot;Acetamin-500-20-generic\u0026quot; \u003c/p\u003e\u003c/div\u003e\u003cp\u003e\u003cb\u003eidentifier\u003c/b\u003e: \u003cspan title\u003d\" contained\u0026gt;\n\t\t\u0026lt;Ingredient\u0026gt;\n\t\t\t\u0026lt;id value\u003d\u0026quot;Acetamin-ing-500\u0026quot;/\u0026gt;\n\t\t\t\u0026lt;status value\u003d\u0026quot;active\u0026quot;/\u0026gt;\n\t\t\t\u0026lt;for\u0026gt;\n\t\t\t\t\u0026lt;reference value\u003d\u0026quot;ManufacturedItemDefinition/Acetamin-tab-500\u0026quot;/\u0026gt;\n\t\t\t\u0026lt;/for\u0026gt;\n\t\t\t\u0026lt;role\u0026gt;\n\t\t\t\t\u0026lt;coding\u0026gt;\n\t\t\t\t\t\u0026lt;code value\u003d\u0026quot;active\u0026quot;/\u0026gt;\n\t\t\t\t\u0026lt;/coding\u0026gt;\n\t\t\t\u0026lt;/role\u0026gt;\n\t\t\t\u0026lt;substance\u0026gt;\n\t\t\t\t\u0026lt;code\u0026gt;\n\t\t\t\t\t\u0026lt;concept\u0026gt;\n\t\t\t\t\t\u0026lt;coding\u0026gt;\n\t\t\t\t\t\t\u0026lt;system value\u003d\u0026quot;http://snomed.info/sct\u0026quot;/\u0026gt;\n\t\t\t\t\t\t\u0026lt;code value\u003d\u0026quot;387517004\u0026quot;/\u0026gt;\n\t\t\t\t\t\t\u0026lt;display value\u003d\u0026quot;Acetaminophen\u0026quot;/\u0026gt;\n\t\t\t\t\t\u0026lt;/coding\u0026gt;\n\t\t\t\t\t\u0026lt;/concept\u0026gt;\n\t\t\t\t\u0026lt;/code\u0026gt;\n\t\t\t\t\u0026lt;strength\u0026gt;\n\t\t\t\t\t\u0026lt;presentationRatio\u0026gt;\n\t\t\t\t\t\t\u0026lt;numerator\u0026gt;\n\t\t\t\t\t\t\t\u0026lt;value value\u003d\u0026quot;500\u0026quot;/\u0026gt;\n\t\t\t\t\t\t\t\u0026lt;unit value\u003d\u0026quot;mg\u0026quot;/\u0026gt;\n\t\t\t\t\t\t\u0026lt;/numerator\u0026gt;\n\t\t\t\t\t\t\u0026lt;denominator\u0026gt;\n\t\t\t\t\t\t\t\u0026lt;value value\u003d\u0026quot;1\u0026quot;/\u0026gt;\n\t\t\t\t\t\t\t\u0026lt;unit value\u003d\u0026quot;tablet\u0026quot;/\u0026gt;\n\t\t\t\t\t\t\u0026lt;/denominator\u0026gt;\n\t\t\t\t\t\u0026lt;/presentationRatio\u0026gt;\n\t\t\t\t\u0026lt;/strength\u0026gt;\n\t\t\t\u0026lt;/substance\u0026gt;\n\t\t\u0026lt;/Ingredient\u0026gt;\n\t\u0026lt;/contained \"\u003eid: 12345\u003c/span\u003e\u003c/p\u003e\u003ch3\u003eNames\u003c/h3\u003e\u003ctable class\u003d\"grid\"\u003e\u003ctr\u003e\u003ctd\u003e-\u003c/td\u003e\u003ctd\u003e\u003cb\u003eProductName\u003c/b\u003e\u003c/td\u003e\u003c/tr\u003e\u003ctr\u003e\u003ctd\u003e*\u003c/td\u003e\u003ctd\u003eAcetaminophen 500 mg tablets [generic]\u003c/td\u003e\u003c/tr\u003e\u003c/table\u003e\u003c/div\u003e"},"contained":[{"resourceType":"PackagedProductDefinition","id":"Acetamin-pack-20","packageFor":[{"reference":"#"}],"packaging":{"type":{"coding":[{"code":"cardboard box"}]},"containedItem":[{"item":{"reference":{"reference":"#Acetamin-tab-500"}},"amount":{"value":20}}]}},{"resourceType":"ManufacturedItemDefinition","id":"Acetamin-tab-500","status":"active","manufacturedDoseForm":{"coding":[{"code":"tablet"}]}}],"identifier":[{"system":"http://example.nation.org/drugs","value":"12345"}],"name":[{"productName":"Acetaminophen 500 mg tablets [generic]"}]}
{"resourceType":"MedicinalProductDefinition","id":"drug-and-device","text":{"status":"generated","div":"\u003cdiv xmlns\u003d\"http://www.w3.org/1999/xhtml\"\u003e\n\t\t\t\u003cp\u003e\n\t\t\t\t\u003cb\u003e\n\t\t\t\t\tGenerated Narrative\n\t\t\t\t\u003c/b\u003e\n\t\t\t\u003c/p\u003e\n\t\t\t\u003cp\u003e\n\t\t\t\t\u003cb\u003e\n\t\t\t\t\tId\n\t\t\t\t\u003c/b\u003e\n\t\t\t\t: drug-and-device\n\t\t\t\u003c/p\u003e\n\t\t\t\u003cp\u003e\n\t\t\t\t\u003cb\u003e\n\t\t\t\t\tIdentifier\n\t\t\t\t\u003c/b\u003e\n\t\t\t\t: Wonderdrug+\n\t\t\t\u003c/p\u003e\n\t\t\t\u003cp\u003e\n\t\t\t\t\u003cb\u003e\n\t\t\t\t\tCombined Pharmaceutical Dose Form\n\t\t\t\t\u003c/b\u003e\n\t\t\t\t:\n\t\t\t\t\u003cspan title\u003d\"Codes: {http://example.org.uk/fhir/doseform solution for injection}\"\u003e\n\t\t\t\t\tsolution for injection\n\t\t\t\t\u003c/span\u003e\n\t\t\t\u003c/p\u003e\n\t\t\t\u003cp\u003e\n\t\t\t\t\u003cb\u003e\n\t\t\t\t\tPackaged Product\n\t\t\t\t\u003c/b\u003e\n\t\t\t\t:\n\t\t\t\t\u003ca name\u003d\"package\"/\u003e\n\t\t\t\u003c/p\u003e\n\t\t\t\u003cblockquote\u003e\n\t\t\t\t\u003cp\u003e\n\t\t\t\t\t\u003cb\u003e\n\t\t\t\t\t\tPackage\n\t\t\t\t\t\u003c/b\u003e\n\t\t\t\t\u003c/p\u003e\n\t\t\t\t\u003cblockquote\u003e\n\t\t\t\t\t\u003cp\u003e\n\t\t\t\t\t\t\u003cb\u003e\n\t\t\t\t\t\t\tContained Item\n\t\t\t\t\t\t\u003c/b\u003e\n\t\t\t\t\t\u003c/p\u003e\n\t\t\t\t\t\u003cp\u003e\n\t\t\t\t\t\t\u003cb\u003e\n\t\t\t\t\t\t\tItem\n\t\t\t\t\t\t\u003c/b\u003e\n\t\t\t\t\t\t:\n\t\t\t\t\t\t\u003ca href\u003d\"#liquidItem\"\u003e\n\t\t\t\t\t\t\tSolution for Injection\n\t\t\t\t\t\t\u003c/a\u003e\n\t\t\t\t\t\u003c/p\u003e\n\t\t\t\t\t\u003cp\u003e\n\t\t\t\t\t\t\u003cb\u003e\n\t\t\t\t\t\t\tAmount\n\t\t\t\t\t\t\u003c/b\u003e\n\t\t\t\t\t\t: 20 ml\n\t\t\t\t\t\u003c/p\u003e\n\t\t\t\t\t\u003cp\u003e\n\t\t\t\t\t\t\u003cb\u003e\n\t\t\t\t\t\t\tIngredient\n\t\t\t\t\t\t\u003c/b\u003e\n\t\t\t\t\t\t: Wondersubstance BP\n\t\t\t\t\t\u003c/p\u003e\n\t\t\t\t\u003c/blockquote\u003e\n\t\t\t\t\u003cblockquote\u003e\n\t\t\t\t\t\u003cp\u003e\n\t\t\t\t\t\t\u003cb\u003e\n\t\t\t\t\t\t\tContained Item\n\t\t\t\t\t\t\u003c/b\u003e\n\t\t\t\t\t\u003c/p\u003e\n\t\t\t\t\t\u003cp\u003e\n\t\t\t\t\t\t\u003cb\u003e\n\t\t\t\t\t\t\tDevice\n\t\t\t\t\t\t\u003c/b\u003e\n\t\t\t\t\t\t:\n\t\t\t\t\t\t\u003ca href\u003d\"#syringeDevice\"\u003e\n\t\t\t\t\t\t\tSyringe\n\t\t\t\t\t\t\u003c/a\u003e\n\t\t\t\t\t\u003c/p\u003e\n\t\t\t\t\t\u003cp\u003e\n\t\t\t\t\t\t\u003cb\u003e\n\t\t\t\t\t\t\tAmount\n\t\t\t\t\t\t\u003c/b\u003e\n\t\t\t\t\t\t: 1\n\t\t\t\t\t\u003c/p\u003e\n\t\t\t\t\u003c/blockquote\u003e\n\t\t\t\u003c/blockquote\u003e\n\t\t\t\u003ch3\u003e\n\t\t\t\tNames\n\t\t\t\u003c/h3\u003e\n\t\t\t\u003ctable class\u003d\"grid\"\u003e\n\t\t\t\t\u003ctr\u003e\n\t\t\t\t\t\u003ctd\u003e\n\t\t\t\t\t\t-\n\t\t\t\t\t\u003c/td\u003e\n\t\t\t\t\t\u003ctd\u003e\n\t\t\t\t\t\t\u003cb\u003e\n\t\t\t\t\t\t\tProduct Name\n\t\t\t\t\t\t\u003c/b\u003e\n\t\t\t\t\t\u003c/td\u003e\n\t\t\t\t\u003c/tr\u003e\n\t\t\t\t\u003ctr\u003e\n\t\t\t\t\t\u003ctd\u003e\n\t\t\t\t\t\t*\n\t\t\t\t\t\u003c/td\u003e\n\t\t\t\t\t\u003ctd\u003e\n\t\t\t\t\t\tWonderdrug+ liquid 20ml\n\t\t\t\t\t\u003c/td\u003e\n\t\t\t\t\u003c/tr\u003e\n\t\t\t\u003c/table\u003e\n\t\t\u003c/div\u003e"},"contained":[{"resourceType":"PackagedProductDefinition","id":"package","packageFor":[{"reference":"#"}],"packaging":{"containedItem":[{"item":{"reference":{"reference":"#liquidItem"}},"amount":{"value":20,"unit":"ml","system":"http://unitsofmeasure.org","code":"mL"}},{"item":{"reference":{"reference":"#syringeDevice"}}}]}},{"resourceType":"DeviceDefinition","id":"syringeDevice","classification":[{"type":{"text":"syringe"}}]},{"resourceType":"ManufacturedItemDefinition","id":"liquidItem","status":"active","manufacturedDoseForm":{"coding":[{"system":"http://example.org.uk/fhir/doseform","code":"solution for injection"}]}}],"identifier":[{"system":"http://example.org.uk/fhir/product","value":"Wonderdrug+"}],"combinedPharmaceuticalDoseForm":{"coding":[{"system":"http://example.org.uk/fhir/doseform","code":"solution for injection"}]},"name":[{"productName":"Wonderdrug+ liquid 20ml"}]}
{"resourceType":"MedicinalProductDefinition","id":"product-with-contained-package-and-ingredient","text":{"status":"generated","div":"\u003cdiv xmlns\u003d\"http://www.w3.org/1999/xhtml\"\u003e\u003cp\u003e\u003cb\u003eGenerated Narrative: MedicinalProductDefinition\u003c/b\u003e\u003ca name\u003d\"product-with-contained-package-and-ingredient\"\u003e \u003c/a\u003e\u003c/p\u003e\u003cdiv style\u003d\"display: inline-block; background-color: #d9e0e7; padding: 6px; margin: 4px; border: 1px solid #8da1b4; border-radius: 5px; line-height: 60%\"\u003e\u003cp style\u003d\"margin-bottom: 0px\"\u003eResource MedicinalProductDefinition \u0026quot;product-with-contained-package-and-ingredient\u0026quot; \u003c/p\u003e\u003c/div\u003e\u003ch3\u003eNames\u003c/h3\u003e\u003ctable class\u003d\"grid\"\u003e\u003ctr\u003e\u003ctd\u003e-\u003c/td\u003e\u003ctd\u003e\u003cb\u003eProductName\u003c/b\u003e\u003c/td\u003e\u003c/tr\u003e\u003ctr\u003e\u003ctd\u003e*\u003c/td\u003e\u003ctd\u003eExampleocillin\u003c/td\u003e\u003c/tr\u003e\u003c/table\u003e\u003c/div\u003e"},"name":[{"productName":"Exampleocillin"}]}