{"resourceType":"Provenance","id":"consent-signature","text":{"status":"generated","div":"\u003cdiv xmlns\u003d\"http://www.w3.org/1999/xhtml\"\u003e\u003cp\u003e\u003cb\u003eGenerated Narrative: Provenance\u003c/b\u003e\u003ca name\u003d\"consent-signature\"\u003e \u003c/a\u003e\u003c/p\u003e\u003cdiv style\u003d\"display: inline-block; background-color: #d9e0e7; padding: 6px; margin: 4px; border: 1px solid #8da1b4; border-radius: 5px; line-height: 60%\"\u003e\u003cp style\u003d\"margin-bottom: 0px\"\u003eResource Provenance \u0026quot;consent-signature\u0026quot; \u003c/p\u003e\u003c/div\u003e\u003cp\u003e\u003cb\u003etarget\u003c/b\u003e: \u003ca href\u003d\"consent-example.html\"\u003eConsent/consent-example-basic/_history/1\u003c/a\u003e\u003c/p\u003e\u003cp\u003e\u003cb\u003erecorded\u003c/b\u003e: \u003cspan title\u003d\"  the provenance is recorded at the same time as \n    the resource - batched together  \"\u003eMay 26, 2016, 4:41:10 AM\u003c/span\u003e\u003c/p\u003e\u003cp\u003e\u003cb\u003eactivity\u003c/b\u003e: authenticated \u003cspan style\u003d\"background: LightGoldenRodYellow; margin: 4px; border: 1px solid khaki\"\u003e (\u003ca href\u003d\"http://terminology.hl7.org/5.1.0/CodeSystem-v3-DocumentCompletion.html\"\u003eDocumentCompletion\u003c/a\u003e#AU)\u003c/span\u003e\u003c/p\u003e\u003cp\u003e\u003cb\u003epatient\u003c/b\u003e: \u003ca href\u003d\"patient-example.html\"\u003ePatient/example\u003c/a\u003e \u0026quot;Peter CHALMERS\u0026quot;\u003c/p\u003e\u003ch3\u003eAgents\u003c/h3\u003e\u003ctable class\u003d\"grid\"\u003e\u003ctr\u003e\u003ctd\u003e-\u003c/td\u003e\u003ctd\u003e\u003cb\u003eRole\u003c/b\u003e\u003c/td\u003e\u003ctd\u003e\u003cb\u003eWho\u003c/b\u003e\u003c/td\u003e\u003c/tr\u003e\u003ctr\u003e\u003ctd\u003e*\u003c/td\u003e\u003ctd\u003eauthor (originator) \u003cspan style\u003d\"background: LightGoldenRodYellow; margin: 4px; border: 1px solid khaki\"\u003e (\u003ca href\u003d\"http://terminology.hl7.org/5.1.0/CodeSystem-v3-ParticipationType.html\"\u003eParticipationType\u003c/a\u003e#AUT)\u003c/span\u003e\u003c/td\u003e\u003ctd\u003e\u003ca href\u003d\"broken-link.html\"\u003ePatient/72\u003c/a\u003e\u003c/td\u003e\u003c/tr\u003e\u003c/table\u003e\u003ch3\u003eSignatures\u003c/h3\u003e\u003ctable class\u003d\"grid\"\u003e\u003ctr\u003e\u003ctd\u003e-\u003c/td\u003e\u003ctd\u003e\u003cb\u003eType\u003c/b\u003e\u003c/td\u003e\u003ctd\u003e\u003cb\u003eWhen\u003c/b\u003e\u003c/td\u003e\u003ctd\u003e\u003cb\u003eWho\u003c/b\u003e\u003c/td\u003e\u003ctd\u003e\u003cb\u003eTargetFormat\u003c/b\u003e\u003c/td\u003e\u003ctd\u003e\u003cb\u003eSigFormat\u003c/b\u003e\u003c/td\u003e\u003ctd\u003e\u003cb\u003eData\u003c/b\u003e\u003c/td\u003e\u003c/tr\u003e\u003ctr\u003e\u003ctd\u003e*\u003c/td\u003e\u003ctd\u003eAuthor\u0027s Signature (Details: urn:iso-astm:E1762-95:2013 code 1.2.840.10065.1.12.1.1 \u003d \u0027Author\u0027s Signature\u0027, stated as \u0027Author\u0027s Signature\u0027)\u003c/td\u003e\u003ctd\u003eMay 26, 2016, 4:41:10 AM\u003c/td\u003e\u003ctd\u003e\u003ca href\u003d\"broken-link.html\"\u003ePatient/72\u003c/a\u003e\u003c/td\u003e\u003ctd\u003eapplication/fhir+xml\u003c/td\u003e\u003ctd\u003eapplication/signature+xml\u003c/td\u003e\u003ctd\u003edGhpcyBibG9iIGlzIHNuaXBwZWQ\u003d\u003c/td\u003e\u003c/tr\u003e\u003c/table\u003e\u003c/div\u003e"},"target":[{"reference":"Consent/consent-example-basic/_history/1"}],"recorded":"2016-05-26T00:41:10-04:00","activity":{"coding":[{"system":"http://terminology.hl7.org/CodeSystem/v3-DocumentCompletion","code":"AU","display":"authenticated"}]},"patient":{"reference":"Patient/example"},"agent":[{"role":[{"coding":[{"system":"http://terminology.hl7.org/CodeSystem/v3-ParticipationType","code":"AUT"}]}],"who":{"reference":"Patient/72"}}],"signature":[{"type":[{"system":"urn:iso-astm:E1762-95:2013","code":"1.2.840.10065.1.12.1.1","display":"Author\u0027s Signature"}],"when":"2016-05-26T00:41:10-04:00","who":{"reference":"Patient/72"},"targetFormat":"application/fhir+xml","sigFormat":"application/signature+xml","data":"dGhpcyBibG9iIGlzIHNuaXBwZWQ\u003d"}]}
{"resourceType":"Provenance","id":"example-biocompute-object","text":{"status":"generated","div":"\u003cdiv xmlns\u003d\"http://www.w3.org/1999/xhtml\"\u003e\n\t\t\t\u003cp\u003e\n\t\t\t\t\u003cb\u003eGenerated Narrative with Details\u003c/b\u003e\n\t\t\t\u003c/p\u003e\u003cp\u003e\n\t\t\t\t\u003cb\u003eid\u003c/b\u003e: example-biocompute-object\u003c/p\u003e\u003cp\u003e\n\t\t\t\t\u003cb\u003etarget\u003c/b\u003e: \u003ca href\u003d\"sequence-example.html\"\u003eMolecularSequence/example\u003c/a\u003e\n\t\t\t\u003c/p\u003e\u003cp\u003e\n\t\t\t\t\u003cb\u003eperiod\u003c/b\u003e: 2017-6-6 --\u0026gt; (ongoing)\u003c/p\u003e\u003cp\u003e\n\t\t\t\t\u003cb\u003erecorded\u003c/b\u003e: 2016-6-9 8:12:14\u003c/p\u003e\u003cp\u003e\n\t\t\t\t\u003cb\u003ereason\u003c/b\u003e: antiviral resistance detection (Details: [not stated] code null \u003d \u0027null\u0027, stated as\n         \u0027antiviral resistance detection\u0027)\u003c/p\u003e\n\t\t\t\u003ch3\u003eAgents\u003c/h3\u003e\n\t\t\t\u003ctable\u003e\n\t\t\t\t\u003ctr\u003e\n\t\t\t\t\t\u003ctd\u003e-\u003c/td\u003e\n\t\t\t\t\t\u003ctd\u003e\n\t\t\t\t\t\t\u003cb\u003eRole\u003c/b\u003e\n\t\t\t\t\t\u003c/td\u003e\n\t\t\t\t\t\u003ctd\u003e\n\t\t\t\t\t\t\u003cb\u003eWho\u003c/b\u003e\n\t\t\t\t\t\u003c/td\u003e\n\t\t\t\t\u003c/tr\u003e\n\t\t\t\t\u003ctr\u003e\n\t\t\t\t\t\u003ctd\u003e*\u003c/td\u003e\n\t\t\t\t\t\u003ctd\u003eAuthor (Details: http://hl7.org/fhir/provenance-participant-role code author \u003d \u0027Author\u0027,\n             stated as \u0027null\u0027)\u003c/td\u003e\n\t\t\t\t\t\u003ctd\u003e\n\t\t\t\t\t\t\u003ca href\u003d\"practitioner-example.html\"\u003ePractitioner/example\u003c/a\u003e\n\t\t\t\t\t\u003c/td\u003e\n\t\t\t\t\u003c/tr\u003e\n\t\t\t\u003c/table\u003e\n\t\t\t\u003ch3\u003eEntities\u003c/h3\u003e\n\t\t\t\u003ctable\u003e\n\t\t\t\t\u003ctr\u003e\n\t\t\t\t\t\u003ctd\u003e-\u003c/td\u003e\n\t\t\t\t\t\u003ctd\u003e\n\t\t\t\t\t\t\u003cb\u003eRole\u003c/b\u003e\n\t\t\t\t\t\u003c/td\u003e\n\t\t\t\t\t\u003ctd\u003e\n\t\t\t\t\t\t\u003cb\u003eReference\u003c/b\u003e\n\t\t\t\t\t\u003c/td\u003e\n\t\t\t\t\u003c/tr\u003e\n\t\t\t\t\u003ctr\u003e\n\t\t\t\t\t\u003ctd\u003e*\u003c/td\u003e\n\t\t\t\t\t\u003ctd\u003esource\u003c/td\u003e\n\t\t\t\t\t\u003ctd\u003e\n\t\t\t\t\t\t\u003ca href\u003d\"https://hive.biochemistry.gwu.edu/cgi-bin/prd/htscsrs/servlet.cgi?pageid\u003dbcoexample_1\"\u003eBiocompute example\u003c/a\u003e\n\t\t\t\t\t\u003c/td\u003e\n\t\t\t\t\u003c/tr\u003e\n\t\t\t\u003c/table\u003e\n\t\t\u003c/div\u003e"},"target":[{"reference":"MolecularSequence/example/_history/1"}],"occurredPeriod":{"start":"2017-06-06"},"recorded":"2016-06-09T08:12:14+10:00","activity":{"coding":[{"system":"http://terminology.hl7.org/CodeSystem/v3-DataOperation","code":"CREATE","display":"create"}],"text":"antiviral resistance detection"},"agent":[{"type":{"coding":[{"system":"http://terminology.hl7.org/CodeSystem/v3-ParticipationType","code":"AUT"}]},"who":{"reference":"Practitioner/example"}}],"entity":[{"role":"source","what":{"identifier":{"type":{"coding":[{"system":"https://hive.biochemistry.gwu.edu","code":"biocompute","display":"obj.1001"}]},"value":"https://hive.biochemistry.gwu.edu/cgi-bin/prd/htscsrs/servlet.cgi?pageid\u003dbcoexample_1"}}}]}
{"resourceType":"Provenance","id":"example-diagnosticreport-sig","text":{"status":"generated","div":"\u003cdiv xmlns\u003d\"http://www.w3.org/1999/xhtml\"\u003e\u003cp\u003e\u003cb\u003eGenerated Narrative: Provenance\u003c/b\u003e\u003ca name\u003d\"example-diagnosticreport-sig\"\u003e \u003c/a\u003e\u003c/p\u003e\u003cdiv style\u003d\"display: inline-block; background-color: #d9e0e7; padding: 6px; margin: 4px; border: 1px solid #8da1b4; border-radius: 5px; line-height: 60%\"\u003e\u003cp style\u003d\"margin-bottom: 0px\"\u003eResource Provenance \u0026quot;example-diagnosticreport-sig\u0026quot; \u003c/p\u003e\u003c/div\u003e\u003cp\u003e\u003cb\u003etarget\u003c/b\u003e: \u003cspan title\u003d\"  \n    an example Provenance of a verification without changing the content, electronic signature\n   \"\u003e\u003ca href\u003d\"diagnosticreport-example.html\"\u003eDiagnosticReport/101\u003c/a\u003e\u003c/span\u003e\u003c/p\u003e\u003cp\u003e\u003cb\u003erecorded\u003c/b\u003e: Mar 3, 2011, 9:30:00 PM\u003c/p\u003e\u003cp\u003e\u003cb\u003epolicy\u003c/b\u003e: \u003ca href\u003d\"http://example.org/policy/Reviewed\"\u003ehttp://example.org/policy/Reviewed\u003c/a\u003e\u003c/p\u003e\u003cp\u003e\u003cb\u003eactivity\u003c/b\u003e: Verify Record Lifecycle Event \u003cspan style\u003d\"background: LightGoldenRodYellow; margin: 4px; border: 1px solid khaki\"\u003e (\u003ca href\u003d\"http://terminology.hl7.org/5.1.0/CodeSystem-iso-21089-lifecycle.html\"\u003eISO 21089 2017 Health Record Lifecycle Events\u003c/a\u003e#verify)\u003c/span\u003e\u003c/p\u003e\u003cp\u003e\u003cb\u003epatient\u003c/b\u003e: \u003ca href\u003d\"patient-example-b.html\"\u003ePatient/pat2\u003c/a\u003e \u0026quot;Duck DONALD\u0026quot;\u003c/p\u003e\u003ch3\u003eAgents\u003c/h3\u003e\u003ctable class\u003d\"grid\"\u003e\u003ctr\u003e\u003ctd\u003e-\u003c/td\u003e\u003ctd\u003e\u003cb\u003eType\u003c/b\u003e\u003c/td\u003e\u003ctd\u003e\u003cb\u003eWho\u003c/b\u003e\u003c/td\u003e\u003c/tr\u003e\u003ctr\u003e\u003ctd\u003e*\u003c/td\u003e\u003ctd\u003eVerifier \u003cspan style\u003d\"background: LightGoldenRodYellow; margin: 4px; border: 1px solid khaki\"\u003e (\u003ca href\u003d\"http://terminology.hl7.org/5.1.0/CodeSystem-provenance-participant-type.html\"\u003eProvenance participant type\u003c/a\u003e#verifier)\u003c/span\u003e\u003c/td\u003e\u003ctd\u003e\u003ca href\u003d\"organization-example-lab.html\"\u003eOrganization/1832473e-2fe0-452d-abe9-3cdb9879522f\u003c/a\u003e \u0026quot;Clinical Lab\u0026quot;\u003c/td\u003e\u003c/tr\u003e\u003c/table\u003e\u003ch3\u003eSignatures\u003c/h3\u003e\u003ctable class\u003d\"grid\"\u003e\u003ctr\u003e\u003ctd\u003e-\u003c/td\u003e\u003ctd\u003e\u003cb\u003eType\u003c/b\u003e\u003c/td\u003e\u003ctd\u003e\u003cb\u003eWhen\u003c/b\u003e\u003c/td\u003e\u003ctd\u003e\u003cb\u003eWho\u003c/b\u003e\u003c/td\u003e\u003c/tr\u003e\u003ctr\u003e\u003ctd\u003e*\u003c/td\u003e\u003ctd\u003e\u003cspan title\u003d\"  verification signature  \"\u003eProof of approval (Details: http://uri.etsi.org/01903/v1.2.2 code ProofOfapproval \u003d \u0027Proof of approval\u0027, stated as \u0027Proof of approval\u0027)\u003c/span\u003e\u003c/td\u003e\u003ctd\u003eMar 3, 2011, 9:30:00 PM\u003c/td\u003e\u003ctd\u003e\u003ca href\u003d\"organization-example-lab.html\"\u003eOrganization/1832473e-2fe0-452d-abe9-3cdb9879522f\u003c/a\u003e \u0026quot;Clinical Lab\u0026quot;\u003c/td\u003e\u003c/tr\u003e\u003c/table\u003e\u003c/div\u003e"},"target":[{"reference":"DiagnosticReport/101"}],"recorded":"2011-03-04T08:30:00+11:00","policy":["http://example.org/policy/Reviewed"],"activity":{"coding":[{"system":"http://terminology.hl7.org/CodeSystem/iso-21089-lifecycle","code":"verify"}]},"patient":{"reference":"Patient/pat2"},"agent":[{"type":{"coding":[{"system":"http://terminology.hl7.org/CodeSystem/provenance-participant-type","code":"verifier","display":"Verifier"}]},"who":{"reference":"Organization/1832473e-2fe0-452d-abe9-3cdb9879522f"}}],"signature":[{"type":[{"system":"http://uri.etsi.org/01903/v1.2.2","code":"ProofOfapproval","display":"Proof of approval"}],"when":"2011-03-04T08:30:00+11:00","who":{"reference":"Organization/1832473e-2fe0-452d-abe9-3cdb9879522f"}}]}
{"resourceType":"Provenance","id":"example-advanced","text":{"status":"generated","div":"\u003cdiv xmlns\u003d\"http://www.w3.org/1999/xhtml\"\u003e\u003cp\u003e\u003cb\u003eGenerated Narrative: Provenance\u003c/b\u003e\u003ca name\u003d\"example-advanced\"\u003e \u003c/a\u003e\u003c/p\u003e\u003cdiv style\u003d\"display: inline-block; background-color: #d9e0e7; padding: 6px; margin: 4px; border: 1px solid #8da1b4; border-radius: 5px; line-height: 60%\"\u003e\u003cp style\u003d\"margin-bottom: 0px\"\u003eResource Provenance \u0026quot;example-advanced\u0026quot; \u003c/p\u003e\u003c/div\u003e\u003cp\u003e\u003cb\u003etarget\u003c/b\u003e: \u003cspan title\u003d\"  \n    an example Provenance fully populated\n   \"\u003e\u003ca href\u003d\"list-example.html\"\u003eList/example\u003c/a\u003e\u003c/span\u003e\u003c/p\u003e\u003cp\u003e\u003cb\u003eoccurred\u003c/b\u003e: 2020-04-29T09:49:00Z\u003c/p\u003e\u003cp\u003e\u003cb\u003erecorded\u003c/b\u003e: Apr 29, 2020, 9:49:00 AM\u003c/p\u003e\u003cp\u003e\u003cb\u003epolicy\u003c/b\u003e: \u003ca href\u003d\"http://example.org/policy/1234\"\u003ehttp://example.org/policy/1234\u003c/a\u003e\u003c/p\u003e\u003cp\u003e\u003cb\u003elocation\u003c/b\u003e: \u003ca href\u003d\"location-example.html\"\u003eLocation/1/_history/1\u003c/a\u003e \u0026quot;South Wing, second floor\u0026quot;\u003c/p\u003e\u003ch3\u003eAuthorizations\u003c/h3\u003e\u003ctable class\u003d\"grid\"\u003e\u003ctr\u003e\u003ctd\u003e-\u003c/td\u003e\u003ctd\u003e\u003cb\u003eConcept\u003c/b\u003e\u003c/td\u003e\u003c/tr\u003e\u003ctr\u003e\u003ctd\u003e*\u003c/td\u003e\u003ctd\u003etreatment \u003cspan style\u003d\"background: LightGoldenRodYellow; margin: 4px; border: 1px solid khaki\"\u003e (\u003ca href\u003d\"http://terminology.hl7.org/5.1.0/CodeSystem-v3-ActReason.html\"\u003eActReason\u003c/a\u003e#TREAT)\u003c/span\u003e\u003c/td\u003e\u003c/tr\u003e\u003c/table\u003e\u003cp\u003e\u003cb\u003eactivity\u003c/b\u003e: Originate/Retain Record Lifecycle Event \u003cspan style\u003d\"background: LightGoldenRodYellow; margin: 4px; border: 1px solid khaki\"\u003e (\u003ca href\u003d\"http://terminology.hl7.org/5.1.0/CodeSystem-iso-21089-lifecycle.html\"\u003eISO 21089 2017 Health Record Lifecycle Events\u003c/a\u003e#originate)\u003c/span\u003e\u003c/p\u003e\u003cp\u003e\u003cb\u003ebasedOn\u003c/b\u003e: \u003ca href\u003d\"careplan-example.html\"\u003eCarePlan/example\u003c/a\u003e\u003c/p\u003e\u003cp\u003e\u003cb\u003epatient\u003c/b\u003e: \u003ca href\u003d\"patient-example.html\"\u003ePatient/example\u003c/a\u003e \u0026quot;Peter CHALMERS\u0026quot;\u003c/p\u003e\u003cp\u003e\u003cb\u003eencounter\u003c/b\u003e: \u003ca href\u003d\"encounter-example-home.html\"\u003eEncounter/home\u003c/a\u003e\u003c/p\u003e\u003cblockquote\u003e\u003cp\u003e\u003cb\u003eagent\u003c/b\u003e\u003c/p\u003e\u003cp\u003e\u003cb\u003etype\u003c/b\u003e: Source Role ID \u003cspan style\u003d\"background: LightGoldenRodYellow; margin: 4px; border: 1px solid khaki\"\u003e (\u003ca href\u003d\"http://dicom.nema.org/resources/ontology/DCM\"\u003eDICOM\u003c/a\u003e#110153)\u003c/span\u003e\u003c/p\u003e\u003cp\u003e\u003cb\u003ewho\u003c/b\u003e: \u003cspan\u003e: myMachine.example.org\u003c/span\u003e\u003c/p\u003e\u003c/blockquote\u003e\u003cblockquote\u003e\u003cp\u003e\u003cb\u003eagent\u003c/b\u003e\u003c/p\u003e\u003cp\u003e\u003cb\u003etype\u003c/b\u003e: Destination Role ID \u003cspan style\u003d\"background: LightGoldenRodYellow; margin: 4px; border: 1px solid khaki\"\u003e (\u003ca href\u003d\"http://dicom.nema.org/resources/ontology/DCM\"\u003eDICOM\u003c/a\u003e#110152)\u003c/span\u003e\u003c/p\u003e\u003cp\u003e\u003cb\u003ewho\u003c/b\u003e: \u003ca href\u003d\"device-example.html\"\u003eDevice/example\u003c/a\u003e\u003c/p\u003e\u003c/blockquote\u003e\u003cblockquote\u003e\u003cp\u003e\u003cb\u003eagent\u003c/b\u003e\u003c/p\u003e\u003cp\u003e\u003cb\u003etype\u003c/b\u003e: Informant \u003cspan style\u003d\"background: LightGoldenRodYellow; margin: 4px; border: 1px solid khaki\"\u003e (\u003ca href\u003d\"http://terminology.hl7.org/5.1.0/CodeSystem-v3-ParticipationType.html\"\u003eParticipationType\u003c/a\u003e#INF)\u003c/span\u003e\u003c/p\u003e\u003cp\u003e\u003cb\u003ewho\u003c/b\u003e: \u003cspan\u003e: Betty Jones\u003c/span\u003e\u003c/p\u003e\u003c/blockquote\u003e\u003ch3\u003eSignatures\u003c/h3\u003e\u003ctable class\u003d\"grid\"\u003e\u003ctr\u003e\u003ctd\u003e-\u003c/td\u003e\u003ctd\u003e\u003cb\u003eType\u003c/b\u003e\u003c/td\u003e\u003ctd\u003e\u003cb\u003eWhen\u003c/b\u003e\u003c/td\u003e\u003ctd\u003e\u003cb\u003eWho\u003c/b\u003e\u003c/td\u003e\u003ctd\u003e\u003cb\u003eSigFormat\u003c/b\u003e\u003c/td\u003e\u003ctd\u003e\u003cb\u003eData\u003c/b\u003e\u003c/td\u003e\u003c/tr\u003e\u003ctr\u003e\u003ctd\u003e*\u003c/td\u003e\u003ctd\u003e\u003cspan title\u003d\"  verification signature  \"\u003eVerification Signature (Details: urn:iso-astm:E1762-95:2013 code 1.2.840.10065.1.12.1.5 \u003d \u0027Verification Signature\u0027, stated as \u0027Verification Signature\u0027)\u003c/span\u003e\u003c/td\u003e\u003ctd\u003eApr 29, 2020, 9:49:00 AM\u003c/td\u003e\u003ctd\u003e\u003cspan\u003e: Betty Jones\u003c/span\u003e\u003c/td\u003e\u003ctd\u003eimage/jpeg\u003c/td\u003e\u003ctd\\u003d\u003d\u003c/td\u003e\u003c/tr\u003e\u003c/table\u003e\u003c/div\u003e"},"target":[{"reference":"List/example"}],"occurredDateTime":"2020-04-29T09:49:00.000Z","recorded":"2020-04-29T09:49:00.000Z","policy":["http://example.org/policy/1234"],"location":{"reference":"Location/1/_history/1"},"authorization":[{"concept":{"coding":[{"system":"http://terminology.hl7.org/CodeSystem/v3-ActReason","code":"TREAT"}]}}],"activity":{"coding":[{"system":"http://terminology.hl7.org/CodeSystem/iso-21089-lifecycle","code":"originate"}]},"basedOn":[{"reference":"CarePlan/example"}],"patient":{"reference":"Patient/example"},"encounter":{"reference":"Encounter/home"},"agent":[{"type":{"coding":[{"system":"http://dicom.nema.org/resources/ontology/DCM","code":"110153","display":"Source Role ID"}]},"who":{"display":"myMachine.example.org"}},{"type":{"coding":[{"system":"http://dicom.nema.org/resources/ontology/DCM","code":"110152","display":"Destination Role ID"}]},"who":{"reference":"Device/example"}},{"type":{"coding":[{"system":"http://terminology.hl7.org/CodeSystem/v3-ParticipationType","code":"INF","display":"Informant"}]},"who":{"display":"Betty Jones"}}],"signature":[{"type":[{"system":"urn:iso-astm:E1762-95:2013","code":"1.2.840.10065.1.12.1.5","display":"Verification Signature"}],"when":"2020-04-29T09:49:00.000Z","who":{"display":"Betty Jones"},"sigFormat":"image/jpeg","data":"\u003d\u003d"}]}
{"resourceType":"Provenance","id":"anon0","meta":{"security":[{"system":"http://terminology.hl7.org/CodeSystem/v3-Confidentiality","code":"V"},{"system":"http://terminology.hl7.org/CodeSystem/v3-ObservationValue","code":"PSEUDED"}]},"text":{"status":"generated","div":"\u003cdiv xmlns\u003d\"http://www.w3.org/1999/xhtml\"\u003e\u003cp\u003e\u003cb\u003eGenerated Narrative: Provenance\u003c/b\u003e\u003ca name\u003d\"anon0\"\u003e \u003c/a\u003e\u003c/p\u003e\u003cdiv style\u003d\"display: inline-block; background-color: #d9e0e7; padding: 6px; margin: 4px; border: 1px solid #8da1b4; border-radius: 5px; line-height: 60%\"\u003e\u003cp style\u003d\"margin-bottom: 0px\"\u003eResource Provenance \u0026quot;anon0\u0026quot; \u003c/p\u003e\u003cp style\u003d\"margin-bottom: 0px\"\u003eSecurity Labels: \u003cspan title\u003d\"{http://terminology.hl7.org/CodeSystem/v3-Confidentiality http://terminology.hl7.org/CodeSystem/v3-Confidentiality}\"\u003ehttp://terminology.hl7.org/CodeSystem/v3-Confidentiality\u003c/span\u003e, \u003cspan title\u003d\"{http://terminology.hl7.org/CodeSystem/v3-ObservationValue http://terminology.hl7.org/CodeSystem/v3-ObservationValue}\"\u003ehttp://terminology.hl7.org/CodeSystem/v3-ObservationValue\u003c/span\u003e\u003c/p\u003e\u003c/div\u003e\u003cp\u003e\u003cb\u003etarget\u003c/b\u003e: \u003ca href\u003d\"broken-link.html\"\u003ehttp://example.org/fhir/Patient/anon0\u003c/a\u003e\u003c/p\u003e\u003cp\u003e\u003cb\u003erecorded\u003c/b\u003e: Jun 26, 2015, 10:39:24 PM\u003c/p\u003e\u003cp\u003e\u003cb\u003epolicy\u003c/b\u003e: \u003cspan title\u003d\"  policy would indicate the rules used for De-Identification, and appropriate purposes of use of the data  \"\u003e\u003ca href\u003d\"http://example.org/policies/666\"\u003ehttp://example.org/policies/666\u003c/a\u003e\u003c/span\u003e\u003c/p\u003e\u003cp\u003e\u003cb\u003eactivity\u003c/b\u003e: De-Identify (Anononymize) Record Lifecycle Event \u003cspan style\u003d\"background: LightGoldenRodYellow; margin: 4px; border: 1px solid khaki\"\u003e (\u003ca href\u003d\"http://terminology.hl7.org/5.1.0/CodeSystem-iso-21089-lifecycle.html\"\u003eISO 21089 2017 Health Record Lifecycle Events\u003c/a\u003e#deidentify)\u003c/span\u003e\u003c/p\u003e\u003ch3\u003eAgents\u003c/h3\u003e\u003ctable class\u003d\"grid\"\u003e\u003ctr\u003e\u003ctd\u003e-\u003c/td\u003e\u003ctd\u003e\u003cb\u003eType\u003c/b\u003e\u003c/td\u003e\u003ctd\u003e\u003cb\u003eWho\u003c/b\u003e\u003c/td\u003e\u003c/tr\u003e\u003ctr\u003e\u003ctd\u003e*\u003c/td\u003e\u003ctd\u003eAssembler \u003cspan style\u003d\"background: LightGoldenRodYellow; margin: 4px; border: 1px solid khaki\"\u003e (\u003ca href\u003d\"http://terminology.hl7.org/5.1.0/CodeSystem-provenance-participant-type.html\"\u003eProvenance participant type\u003c/a\u003e#assembler)\u003c/span\u003e\u003c/td\u003e\u003ctd\u003e\u003cspan\u003e: Device/software\u003c/span\u003e\u003c/td\u003e\u003c/tr\u003e\u003c/table\u003e\u003ch3\u003eEntities\u003c/h3\u003e\u003ctable class\u003d\"grid\"\u003e\u003ctr\u003e\u003ctd\u003e-\u003c/td\u003e\u003ctd\u003e\u003cb\u003eRole\u003c/b\u003e\u003c/td\u003e\u003ctd\u003e\u003cb\u003eWhat\u003c/b\u003e\u003c/td\u003e\u003c/tr\u003e\u003ctr\u003e\u003ctd\u003e*\u003c/td\u003e\u003ctd\u003esource\u003c/td\u003e\u003ctd\u003e\u003ca href\u003d\"patient-example.html\"\u003ePatient/example\u003c/a\u003e \u0026quot;Peter CHALMERS\u0026quot;\u003c/td\u003e\u003c/tr\u003e\u003c/table\u003e\u003c/div\u003e"},"target":[{"reference":"http://example.org/fhir/Patient/anon0"}],"recorded":"2015-06-27T08:39:24+10:00","policy":["http://example.org/policies/666"],"activity":{"coding":[{"system":"http://terminology.hl7.org/CodeSystem/iso-21089-lifecycle","code":"deidentify"}]},"agent":[{"type":{"coding":[{"system":"http://terminology.hl7.org/CodeSystem/provenance-participant-type","code":"assembler"}]},"who":{"display":"Device/software"}}],"entity":[{"role":"source","what":{"reference":"Patient/example"}}]}
{"resourceType":"Provenance","id":"example-create-consent","text":{"status":"generated","div":"\u003cdiv xmlns\u003d\"http://www.w3.org/1999/xhtml\"\u003e\u003cp\u003e\u003cb\u003eGenerated Narrative: Provenance\u003c/b\u003e\u003ca name\u003d\"example-create-consent\"\u003e \u003c/a\u003e\u003c/p\u003e\u003cdiv style\u003d\"display: inline-block; background-color: #d9e0e7; padding: 6px; margin: 4px; border: 1px solid #8da1b4; border-radius: 5px; line-height: 60%\"\u003e\u003cp style\u003d\"margin-bottom: 0px\"\u003eResource Provenance \u0026quot;example-create-consent\u0026quot; \u003c/p\u003e\u003c/div\u003e\u003cp\u003e\u003cb\u003etarget\u003c/b\u003e: \u003ca href\u003d\"consent-example.html\"\u003eConsent/consent-example-basic/_history/1\u003c/a\u003e\u003c/p\u003e\u003cp\u003e\u003cb\u003erecorded\u003c/b\u003e: Sep 10, 2021, 7:08:21 AM\u003c/p\u003e\u003cp\u003e\u003cb\u003eactivity\u003c/b\u003e: create \u003cspan style\u003d\"background: LightGoldenRodYellow; margin: 4px; border: 1px solid khaki\"\u003e (\u003ca href\u003d\"http://terminology.hl7.org/5.1.0/CodeSystem-v3-DataOperation.html\"\u003eDataOperation\u003c/a\u003e#CREATE)\u003c/span\u003e\u003c/p\u003e\u003cp\u003e\u003cb\u003epatient\u003c/b\u003e: \u003ca href\u003d\"patient-example.html\"\u003ePatient/example\u003c/a\u003e \u0026quot;Peter CHALMERS\u0026quot;\u003c/p\u003e\u003ch3\u003eAgents\u003c/h3\u003e\u003ctable class\u003d\"grid\"\u003e\u003ctr\u003e\u003ctd\u003e-\u003c/td\u003e\u003ctd\u003e\u003cb\u003eType\u003c/b\u003e\u003c/td\u003e\u003ctd\u003e\u003cb\u003eWho\u003c/b\u003e\u003c/td\u003e\u003c/tr\u003e\u003ctr\u003e\u003ctd\u003e*\u003c/td\u003e\u003ctd\u003eAssembler \u003cspan style\u003d\"background: LightGoldenRodYellow; margin: 4px; border: 1px solid khaki\"\u003e (\u003ca href\u003d\"http://terminology.hl7.org/5.1.0/CodeSystem-provenance-participant-type.html\"\u003eProvenance participant type\u003c/a\u003e#assembler)\u003c/span\u003e\u003c/td\u003e\u003ctd\u003e\u003cspan\u003e: LEAP Consent Management Service\u003c/span\u003e\u003c/td\u003e\u003c/tr\u003e\u003c/table\u003e\u003ch3\u003eEntities\u003c/h3\u003e\u003ctable class\u003d\"grid\"\u003e\u003ctr\u003e\u003ctd\u003e-\u003c/td\u003e\u003ctd\u003e\u003cb\u003eRole\u003c/b\u003e\u003c/td\u003e\u003ctd\u003e\u003cb\u003eWhat\u003c/b\u003e\u003c/td\u003e\u003c/tr\u003e\u003ctr\u003e\u003ctd\u003e*\u003c/td\u003e\u003ctd\u003esource\u003c/td\u003e\u003ctd\u003e\u003ca href\u003d\"broken-link.html\"\u003ehttp://example.org/fhir/QuestionnaireResponse/some-questionnaire-response\u003c/a\u003e\u003c/td\u003e\u003c/tr\u003e\u003c/table\u003e\u003c/div\u003e"},"target":[{"reference":"Consent/consent-example-basic/_history/1"}],"recorded":"2021-09-10T07:08:21.722+00:00","activity":{"coding":[{"system":"http://terminology.hl7.org/CodeSystem/v3-DataOperation","code":"CREATE","display":"create"}]},"patient":{"reference":"Patient/example"},"agent":[{"type":{"coding":[{"system":"http://terminology.hl7.org/CodeSystem/provenance-participant-type","code":"assembler","display":"Assembler"}]},"who":{"display":"LEAP Consent Management Service"}}],"entity":[{"role":"source","what":{"reference":"http://example.org/fhir/QuestionnaireResponse/some-questionnaire-response"}}]}
{"resourceType":"Provenance","id":"example2","text":{"status":"generated","div":"\u003cdiv xmlns\u003d\"http://www.w3.org/1999/xhtml\"\u003e\u003cp\u003e\u003cb\u003eGenerated Narrative: Provenance\u003c/b\u003e\u003ca name\u003d\"example2\"\u003e \u003c/a\u003e\u003c/p\u003e\u003cdiv style\u003d\"display: inline-block; background-color: #d9e0e7; padding: 6px; margin: 4px; border: 1px solid #8da1b4; border-radius: 5px; line-height: 60%\"\u003e\u003cp style\u003d\"margin-bottom: 0px\"\u003eResource Provenance \u0026quot;example2\u0026quot; \u003c/p\u003e\u003c/div\u003e\u003cp\u003e\u003cb\u003etarget\u003c/b\u003e: \u003cspan title\u003d\"  \n    Got the patient\u0027s nickname from his partner\n   \"\u003e\u003ca href\u003d\"patient-example-c.html\"\u003ePatient/pat3/_history/1\u003c/a\u003e \u0026quot;Simon NOTSOWELL\u0026quot;(#n2)\u003c/span\u003e\u003c/p\u003e\u003cp\u003e\u003cb\u003erecorded\u003c/b\u003e: Dec 8, 2021, 5:54:24 AM\u003c/p\u003e\u003ch3\u003eAgents\u003c/h3\u003e\u003ctable class\u003d\"grid\"\u003e\u003ctr\u003e\u003ctd\u003e-\u003c/td\u003e\u003ctd\u003e\u003cb\u003eType\u003c/b\u003e\u003c/td\u003e\u003ctd\u003e\u003cb\u003eWho\u003c/b\u003e\u003c/td\u003e\u003c/tr\u003e\u003ctr\u003e\u003ctd\u003e*\u003c/td\u003e\u003ctd\u003einformant \u003cspan style\u003d\"background: LightGoldenRodYellow; margin: 4px; border: 1px solid khaki\"\u003e (\u003ca href\u003d\"http://terminology.hl7.org/5.1.0/CodeSystem-v3-ParticipationType.html\"\u003eParticipationType\u003c/a\u003e#INF)\u003c/span\u003e\u003c/td\u003e\u003ctd\u003e\u003ca href\u003d\"relatedperson-example-f001-sarah.html\"\u003eRelatedPerson/f001\u003c/a\u003e \u0026quot;Sarah ABELS\u0026quot;\u003c/td\u003e\u003c/tr\u003e\u003c/table\u003e\u003c/div\u003e"},"target":[{"extension":[{"url":"http://hl7.org/fhir/StructureDefinition/targetElement","valueUri":"n2"}],"reference":"Patient/pat3/_history/1"}],"recorded":"2021-12-08T16:54:24+11:00","agent":[{"type":{"coding":[{"system":"http://terminology.hl7.org/CodeSystem/v3-ParticipationType","code":"INF"}]},"who":{"reference":"RelatedPerson/f001"}}]}
{"resourceType":"Provenance","id":"example-cwl","text":{"status":"generated","div":"\u003cdiv xmlns\u003d\"http://www.w3.org/1999/xhtml\"\u003e\n\t\t\t\u003cp\u003e\n\t\t\t\t\u003cb\u003eGenerated Narrative with Details\u003c/b\u003e\n\t\t\t\u003c/p\u003e\u003cp\u003e\n\t\t\t\t\u003cb\u003eid\u003c/b\u003e: cwl-example\u003c/p\u003e\u003cp\u003e\n\t\t\t\t\u003cb\u003etarget\u003c/b\u003e: \u003ca href\u003d\"sequence-example-pgx-1.html\"\u003eMolecularSequence/example-pgx-1\u003c/a\u003e\n\t\t\t\u003c/p\u003e\u003cp\u003e\n\t\t\t\t\u003cb\u003eperiod\u003c/b\u003e: Nov 30, 2016 --\u0026gt; (ongoing)\u003c/p\u003e\u003cp\u003e\n\t\t\t\t\u003cb\u003erecorded\u003c/b\u003e: Dec 1, 2016 8:12:14 AM\u003c/p\u003e\u003cp\u003e\n\t\t\t\t\u003cb\u003ereason\u003c/b\u003e: profiling Short Tandem Repeats (STRs) from high throughput sequencing data. (Details:\n         [not stated] code null \u003d \u0027null\u0027, stated as \u0027profiling Short Tandem Repeats (STRs) from\n         high throughput sequencing data.\u0027)\u003c/p\u003e\n\t\t\t\u003ch3\u003eAgents\u003c/h3\u003e\n\t\t\t\u003ctable\u003e\n\t\t\t\t\u003ctr\u003e\n\t\t\t\t\t\u003ctd\u003e-\u003c/td\u003e\n\t\t\t\t\t\u003ctd\u003e\n\t\t\t\t\t\t\u003cb\u003eRole\u003c/b\u003e\n\t\t\t\t\t\u003c/td\u003e\n\t\t\t\t\t\u003ctd\u003e\n\t\t\t\t\t\t\u003cb\u003eWho\u003c/b\u003e\n\t\t\t\t\t\u003c/td\u003e\n\t\t\t\t\u003c/tr\u003e\n\t\t\t\t\u003ctr\u003e\n\t\t\t\t\t\u003ctd\u003e*\u003c/td\u003e\n\t\t\t\t\t\u003ctd\u003eAuthor (Details: http://hl7.org/fhir/provenance-participant-role code author \u003d \u0027Author\u0027,\n             stated as \u0027null\u0027)\u003c/td\u003e\n\t\t\t\t\t\u003ctd\u003e\n\t\t\t\t\t\t\u003ca href\u003d\"patient-example.html\"\u003ePatient/example\u003c/a\u003e\n\t\t\t\t\t\u003c/td\u003e\n\t\t\t\t\u003c/tr\u003e\n\t\t\t\u003c/table\u003e\n\t\t\t\u003ch3\u003eEntities\u003c/h3\u003e\n\t\t\t\u003ctable\u003e\n\t\t\t\t\u003ctr\u003e\n\t\t\t\t\t\u003ctd\u003e-\u003c/td\u003e\n\t\t\t\t\t\u003ctd\u003e\n\t\t\t\t\t\t\u003cb\u003eRole\u003c/b\u003e\n\t\t\t\t\t\u003c/td\u003e\n\t\t\t\t\t\u003ctd\u003e\n\t\t\t\t\t\t\u003cb\u003eReference\u003c/b\u003e\n\t\t\t\t\t\u003c/td\u003e\n\t\t\t\t\u003c/tr\u003e\n\t\t\t\t\u003ctr\u003e\n\t\t\t\t\t\u003ctd\u003e*\u003c/td\u003e\n\t\t\t\t\t\u003ctd\u003esource\u003c/td\u003e\n\t\t\t\t\t\u003ctd\u003e\n\t\t\t\t\t\t\u003ca href\u003d\"https://github.com/common-workflow-language/workflows/blob/master/workflows/lobSTR/lobSTR-workflow.cwl\"\u003eCWL example\u003c/a\u003e\n\t\t\t\t\t\u003c/td\u003e\n\t\t\t\t\u003c/tr\u003e\n\t\t\t\u003c/table\u003e\n\t\t\u003c/div\u003e"},"target":[{"reference":"MolecularSequence/example-pgx-1/_history/1"}],"occurredPeriod":{"start":"2016-11-30"},"recorded":"2016-12-01T08:12:14+10:00","activity":{"coding":[{"system":"http://terminology.hl7.org/CodeSystem/v3-DataOperation","code":"CREATE","display":"create"}],"text":"profiling Short Tandem Repeats (STRs) from high throughput sequencing data."},"agent":[{"type":{"coding":[{"system":"http://terminology.hl7.org/CodeSystem/v3-ParticipationType","code":"AUT"}]},"who":{"reference":"Patient/example"}}],"entity":[{"role":"source","what":{"identifier":{"type":{"coding":[{"system":"https://github.com/common-workflow-language/workflows","code":"CWL","display":"lobSTR"}]},"value":"https://github.com/common-workflow-language/workflows/blob/master/workflows/lobSTR/lobSTR-workflow.cwl"}}}]}
{"resourceType":"Provenance","id":"example-delete","text":{"status":"generated","div":"\u003cdiv xmlns\u003d\"http://www.w3.org/1999/xhtml\"\u003e\u003cp\u003e\u003cb\u003eGenerated Narrative: Provenance\u003c/b\u003e\u003ca name\u003d\"example-delete\"\u003e \u003c/a\u003e\u003c/p\u003e\u003cdiv style\u003d\"display: inline-block; background-color: #d9e0e7; padding: 6px; margin: 4px; border: 1px solid #8da1b4; border-radius: 5px; line-height: 60%\"\u003e\u003cp style\u003d\"margin-bottom: 0px\"\u003eResource Provenance \u0026quot;example-delete\u0026quot; \u003c/p\u003e\u003c/div\u003e\u003cp\u003e\u003cb\u003etarget\u003c/b\u003e: \u003ca href\u003d\"broken-link.html\"\u003ehttp://terminology.hl7.org/CodeSystem/location-physical-type/_history/3\u003c/a\u003e\u003c/p\u003e\u003cp\u003e\u003cb\u003erecorded\u003c/b\u003e: Jun 26, 2015, 10:39:24 PM\u003c/p\u003e\u003ch3\u003eAuthorizations\u003c/h3\u003e\u003ctable class\u003d\"grid\"\u003e\u003ctr\u003e\u003ctd\u003e-\u003c/td\u003e\u003ctd\u003e\u003cb\u003eConcept\u003c/b\u003e\u003c/td\u003e\u003c/tr\u003e\u003ctr\u003e\u003ctd\u003e*\u003c/td\u003e\u003ctd\u003emetadata management \u003cspan style\u003d\"background: LightGoldenRodYellow; margin: 4px; border: 1px solid khaki\"\u003e (\u003ca href\u003d\"http://terminology.hl7.org/5.1.0/CodeSystem-v3-ActReason.html\"\u003eActReason\u003c/a\u003e#METAMGT)\u003c/span\u003e\u003c/td\u003e\u003c/tr\u003e\u003c/table\u003e\u003cp\u003e\u003cb\u003eactivity\u003c/b\u003e: delete \u003cspan style\u003d\"background: LightGoldenRodYellow; margin: 4px; border: 1px solid khaki\"\u003e (\u003ca href\u003d\"http://terminology.hl7.org/5.1.0/CodeSystem-v3-DataOperation.html\"\u003eDataOperation\u003c/a\u003e#DELETE)\u003c/span\u003e\u003c/p\u003e\u003ch3\u003eAgents\u003c/h3\u003e\u003ctable class\u003d\"grid\"\u003e\u003ctr\u003e\u003ctd\u003e-\u003c/td\u003e\u003ctd\u003e\u003cb\u003eType\u003c/b\u003e\u003c/td\u003e\u003ctd\u003e\u003cb\u003eWho\u003c/b\u003e\u003c/td\u003e\u003c/tr\u003e\u003ctr\u003e\u003ctd\u003e*\u003c/td\u003e\u003ctd\u003eAuthor \u003cspan style\u003d\"background: LightGoldenRodYellow; margin: 4px; border: 1px solid khaki\"\u003e (\u003ca href\u003d\"http://terminology.hl7.org/5.1.0/CodeSystem-provenance-participant-type.html\"\u003eProvenance participant type\u003c/a\u003e#author)\u003c/span\u003e\u003c/td\u003e\u003ctd\u003e\u003cspan\u003e: Brian Postlethwaite\u003c/span\u003e\u003c/td\u003e\u003c/tr\u003e\u003c/table\u003e\u003ch3\u003eEntities\u003c/h3\u003e\u003ctable class\u003d\"grid\"\u003e\u003ctr\u003e\u003ctd\u003e-\u003c/td\u003e\u003ctd\u003e\u003cb\u003eRole\u003c/b\u003e\u003c/td\u003e\u003ctd\u003e\u003cb\u003eWhat\u003c/b\u003e\u003c/td\u003e\u003c/tr\u003e\u003ctr\u003e\u003ctd\u003e*\u003c/td\u003e\u003ctd\u003esource\u003c/td\u003e\u003ctd\u003e\u003ca href\u003d\"broken-link.html\"\u003ehttp://terminology.hl7.org/CodeSystem/location-physical-type/_history/3\u003c/a\u003e\u003c/td\u003e\u003c/tr\u003e\u003c/table\u003e\u003c/div\u003e"},"target":[{"reference":"http://terminology.hl7.org/CodeSystem/location-physical-type/_history/3"}],"recorded":"2015-06-27T08:39:24+10:00","authorization":[{"concept":{"coding":[{"system":"http://terminology.hl7.org/CodeSystem/v3-ActReason","code":"METAMGT"}]}}],"activity":{"coding":[{"system":"http://terminology.hl7.org/CodeSystem/v3-DataOperation","code":"DELETE"}]},"agent":[{"type":{"coding":[{"system":"http://terminology.hl7.org/CodeSystem/provenance-participant-type","code":"author"}]},"who":{"display":"Brian Postlethwaite"}}],"entity":[{"role":"source","what":{"reference":"http://terminology.hl7.org/CodeSystem/location-physical-type/_history/3"}}]}
{"resourceType":"Provenance","id":"example","text":{"status":"generated","div":"\u003cdiv xmlns\u003d\"http://www.w3.org/1999/xhtml\"\u003e\u003cp\u003e\u003cb\u003eGenerated Narrative: Provenance\u003c/b\u003e\u003ca name\u003d\"example\"\u003e \u003c/a\u003e\u003c/p\u003e\u003cdiv style\u003d\"display: inline-block; background-color: #d9e0e7; padding: 6px; margin: 4px; border: 1px solid #8da1b4; border-radius: 5px; line-height: 60%\"\u003e\u003cp style\u003d\"margin-bottom: 0px\"\u003eResource Provenance \u0026quot;example\u0026quot; \u003c/p\u003e\u003c/div\u003e\u003cp\u003e\u003cb\u003etarget\u003c/b\u003e: \u003cspan title\u003d\" \n\t\u0026lt;text\u0026gt;\n\t\t\u0026lt;status value\u003d\u0026quot;additional\u0026quot;/\u0026gt;\n\t\t\u0026lt;div xmlns\u003d\u0026quot;http://www.w3.org/1999/xhtml\u0026quot;\u0026gt;procedure record authored on 27-June 2015 by Harold Hippocrates, MD Content extracted from XDS managed CDA Referral received 26-June as authorized by a referenced Consent.\u0026lt;/div\u0026gt;\n\t\u0026lt;/text\u0026gt;\n \u0026amp;#10;  \n    where possible, provenance targets should be version specific,\n    so that there is no ambiguity about which version of the \n    record this relates to\n   \"\u003e\u003ca href\u003d\"procedure-example.html\"\u003eProcedure/example/_history/1\u003c/a\u003e\u003c/span\u003e\u003c/p\u003e\u003cp\u003e\u003cb\u003eoccurred\u003c/b\u003e: 2015-06-27 --\u0026gt; 2015-06-28\u003c/p\u003e\u003cp\u003e\u003cb\u003erecorded\u003c/b\u003e: Jun 26, 2015, 10:39:24 PM\u003c/p\u003e\u003cp\u003e\u003cb\u003epolicy\u003c/b\u003e: \u003cspan title\u003d\"  reference to a patient consent to share inforamtion  \"\u003e\u003ca href\u003d\"http://acme.com/fhir/Consent/25\"\u003ehttp://acme.com/fhir/Consent/25\u003c/a\u003e\u003c/span\u003e\u003c/p\u003e\u003cp\u003e\u003cb\u003elocation\u003c/b\u003e: \u003ca href\u003d\"location-example.html\"\u003eLocation/1\u003c/a\u003e \u0026quot;South Wing, second floor\u0026quot;\u003c/p\u003e\u003cp\u003e\u003cb\u003eactivity\u003c/b\u003e: Referral \u003cspan style\u003d\"background: LightGoldenRodYellow; margin: 4px; border: 1px solid khaki\"\u003e (\u003ca href\u003d\"https://browser.ihtsdotools.org/\"\u003eSNOMED CT\u003c/a\u003e#3457005)\u003c/span\u003e\u003c/p\u003e\u003cblockquote\u003e\u003cp\u003e\u003cb\u003eagent\u003c/b\u003e\u003c/p\u003e\u003cp\u003e\u003cb\u003etype\u003c/b\u003e: author (originator) \u003cspan style\u003d\"background: LightGoldenRodYellow; margin: 4px; border: 1px solid khaki\"\u003e (\u003ca href\u003d\"http://terminology.hl7.org/5.1.0/CodeSystem-v3-ParticipationType.html\"\u003eParticipationType\u003c/a\u003e#AUT)\u003c/span\u003e\u003c/p\u003e\u003cp\u003e\u003cb\u003ewho\u003c/b\u003e: \u003ca href\u003d\"practitioner-example-xcda-author.html\"\u003ePractitioner/xcda-author\u003c/a\u003e \u0026quot;Harold HIPPOCRATES\u0026quot;\u003c/p\u003e\u003c/blockquote\u003e\u003cblockquote\u003e\u003cp\u003e\u003cb\u003eagent\u003c/b\u003e\u003c/p\u003e\u003cp\u003e\u003cb\u003etype\u003c/b\u003e: device \u003cspan style\u003d\"background: LightGoldenRodYellow; margin: 4px; border: 1px solid khaki\"\u003e (\u003ca href\u003d\"http://terminology.hl7.org/5.1.0/CodeSystem-v3-ParticipationType.html\"\u003eParticipationType\u003c/a\u003e#DEV)\u003c/span\u003e\u003c/p\u003e\u003cp\u003e\u003cb\u003ewho\u003c/b\u003e: \u003cspan\u003e: Device/software\u003c/span\u003e\u003c/p\u003e\u003c/blockquote\u003e\u003ch3\u003eEntities\u003c/h3\u003e\u003ctable class\u003d\"grid\"\u003e\u003ctr\u003e\u003ctd\u003e-\u003c/td\u003e\u003ctd\u003e\u003cb\u003eRole\u003c/b\u003e\u003c/td\u003e\u003ctd\u003e\u003cb\u003eWhat\u003c/b\u003e\u003c/td\u003e\u003c/tr\u003e\u003ctr\u003e\u003ctd\u003e*\u003c/td\u003e\u003ctd\u003esource\u003c/td\u003e\u003ctd\u003e\u003cspan title\u003d\"  \n      the document is in an XDS repository. \n      as a source, we\u0027re going to give an MHD \n      reference. (easier than XDS.b call with parameters!)\n\t  Given the reference is to a FHIR DocumentReference, that resource describes the kind of content\n     \"\u003e\u003ca href\u003d\"documentreference-example.html\"\u003eDocumentReference/example: CDA Document in XDS repository\u003c/a\u003e\u003c/span\u003e\u003c/td\u003e\u003c/tr\u003e\u003c/table\u003e\u003c/div\u003e"},"target":[{"reference":"Procedure/example/_history/1"}],"occurredPeriod":{"start":"2015-06-27","end":"2015-06-28"},"recorded":"2015-06-27T08:39:24+10:00","policy":["http://acme.com/fhir/Consent/25"],"location":{"reference":"Location/1"},"activity":{"coding":[{"system":"http://snomed.info/sct","code":"3457005","display":"Referral"}]},"agent":[{"type":{"coding":[{"system":"http://terminology.hl7.org/CodeSystem/v3-ParticipationType","code":"AUT"}]},"who":{"reference":"Practitioner/xcda-author"}},{"id":"a1","type":{"coding":[{"system":"http://terminology.hl7.org/CodeSystem/v3-ParticipationType","code":"DEV"}]},"who":{"display":"Device/software"}}],"entity":[{"role":"source","what":{"reference":"DocumentReference/example","display":"CDA Document in XDS repository"}}]}
{"resourceType":"Provenance","id":"example1","text":{"status":"generated","div":"\u003cdiv xmlns\u003d\"http://www.w3.org/1999/xhtml\"\u003e\u003cp\u003e\u003cb\u003eGenerated Narrative: Provenance\u003c/b\u003e\u003ca name\u003d\"example1\"\u003e \u003c/a\u003e\u003c/p\u003e\u003cdiv style\u003d\"display: inline-block; background-color: #d9e0e7; padding: 6px; margin: 4px; border: 1px solid #8da1b4; border-radius: 5px; line-height: 60%\"\u003e\u003cp style\u003d\"margin-bottom: 0px\"\u003eResource Provenance \u0026quot;example1\u0026quot; \u003c/p\u003e\u003c/div\u003e\u003cp\u003e\u003cb\u003etarget\u003c/b\u003e: \u003cspan title\u003d\"  \n    Got the patient\u0027s official name from the patient directly\n   \"\u003e\u003ca href\u003d\"patient-example-c.html\"\u003ePatient/pat3/_history/1\u003c/a\u003e \u0026quot;Simon NOTSOWELL\u0026quot;(#n1)\u003c/span\u003e\u003c/p\u003e\u003cp\u003e\u003cb\u003erecorded\u003c/b\u003e: Dec 7, 2021, 1:23:45 AM\u003c/p\u003e\u003ch3\u003eAgents\u003c/h3\u003e\u003ctable class\u003d\"grid\"\u003e\u003ctr\u003e\u003ctd\u003e-\u003c/td\u003e\u003ctd\u003e\u003cb\u003eType\u003c/b\u003e\u003c/td\u003e\u003ctd\u003e\u003cb\u003eWho\u003c/b\u003e\u003c/td\u003e\u003c/tr\u003e\u003ctr\u003e\u003ctd\u003e*\u003c/td\u003e\u003ctd\u003einformant \u003cspan style\u003d\"background: LightGoldenRodYellow; margin: 4px; border: 1px solid khaki\"\u003e (\u003ca href\u003d\"http://terminology.hl7.org/5.1.0/CodeSystem-v3-ParticipationType.html\"\u003eParticipationType\u003c/a\u003e#INF)\u003c/span\u003e\u003c/td\u003e\u003ctd\u003e\u003ca href\u003d\"patient-example-c.html\"\u003ePatient/pat3\u003c/a\u003e \u0026quot;Simon NOTSOWELL\u0026quot;\u003c/td\u003e\u003c/tr\u003e\u003c/table\u003e\u003c/div\u003e"},"target":[{"extension":[{"url":"http://hl7.org/fhir/StructureDefinition/targetElement","valueUri":"n1"}],"reference":"Patient/pat3/_history/1"}],"recorded":"2021-12-07T12:23:45+11:00","agent":[{"type":{"coding":[{"system":"http://terminology.hl7.org/CodeSystem/v3-ParticipationType","code":"INF"}]},"who":{"reference":"Patient/pat3"}}]}
{"resourceType":"Provenance","id":"signature","text":{"status":"generated","div":"\u003cdiv xmlns\u003d\"http://www.w3.org/1999/xhtml\"\u003e\u003cp\u003e\u003cb\u003eGenerated Narrative: Provenance\u003c/b\u003e\u003ca name\u003d\"signature\"\u003e \u003c/a\u003e\u003c/p\u003e\u003cdiv style\u003d\"display: inline-block; background-color: #d9e0e7; padding: 6px; margin: 4px; border: 1px solid #8da1b4; border-radius: 5px; line-height: 60%\"\u003e\u003cp style\u003d\"margin-bottom: 0px\"\u003eResource Provenance \u0026quot;signature\u0026quot; \u003c/p\u003e\u003c/div\u003e\u003cp\u003e\u003cb\u003etarget\u003c/b\u003e: \u003cspan title\u003d\" \n\t\u0026lt;text\u0026gt;\n\t\t\u0026lt;status value\u003d\u0026quot;extensions\u0026quot;/\u0026gt;\n\t\t\u0026lt;div xmlns\u003d\u0026quot;http://www.w3.org/1999/xhtml\u0026quot;\u0026gt;procedure record authored on 27-June 2015 by Harold Hippocrates, MD Content extracted from Referral received 26-June\u0026lt;/div\u0026gt;\n\t\u0026lt;/text\u0026gt;\n \u0026amp;#10;  \n    where possible, provenance targets should be version specific,\n    so that there is no ambiguity about which version of the \n    record this relates to\n   \"\u003e\u003ca href\u003d\"documentreference-example.html\"\u003eDocumentReference/example/_history/4\u003c/a\u003e\u003c/span\u003e\u003c/p\u003e\u003cp\u003e\u003cb\u003erecorded\u003c/b\u003e: Aug 26, 2015, 10:39:24 PM\u003c/p\u003e\u003ch3\u003eAuthorizations\u003c/h3\u003e\u003ctable class\u003d\"grid\"\u003e\u003ctr\u003e\u003ctd\u003e-\u003c/td\u003e\u003ctd\u003e\u003cb\u003eConcept\u003c/b\u003e\u003c/td\u003e\u003c/tr\u003e\u003ctr\u003e\u003ctd\u003e*\u003c/td\u003e\u003ctd\u003etreatment \u003cspan style\u003d\"background: LightGoldenRodYellow; margin: 4px; border: 1px solid khaki\"\u003e (\u003ca href\u003d\"http://terminology.hl7.org/5.1.0/CodeSystem-v3-ActReason.html\"\u003eActReason\u003c/a\u003e#TREAT)\u003c/span\u003e\u003c/td\u003e\u003c/tr\u003e\u003c/table\u003e\u003cp\u003e\u003cb\u003eactivity\u003c/b\u003e: authenticated \u003cspan style\u003d\"background: LightGoldenRodYellow; margin: 4px; border: 1px solid khaki\"\u003e (\u003ca href\u003d\"http://terminology.hl7.org/5.1.0/CodeSystem-v3-DocumentCompletion.html\"\u003eDocumentCompletion\u003c/a\u003e#AU)\u003c/span\u003e\u003c/p\u003e\u003ch3\u003eAgents\u003c/h3\u003e\u003ctable class\u003d\"grid\"\u003e\u003ctr\u003e\u003ctd\u003e-\u003c/td\u003e\u003ctd\u003e\u003cb\u003eType\u003c/b\u003e\u003c/td\u003e\u003ctd\u003e\u003cb\u003eWho\u003c/b\u003e\u003c/td\u003e\u003c/tr\u003e\u003ctr\u003e\u003ctd\u003e*\u003c/td\u003e\u003ctd\u003eVerifier \u003cspan style\u003d\"background: LightGoldenRodYellow; margin: 4px; border: 1px solid khaki\"\u003e (\u003ca href\u003d\"http://terminology.hl7.org/5.1.0/CodeSystem-contractsignertypecodes.html\"\u003eContract Signer Type Codes\u003c/a\u003e#VERF)\u003c/span\u003e\u003c/td\u003e\u003ctd\u003e\u003cspan title\u003d\"  very often, the user won\u0027t have a known system - these aren\u0027t available \n      for security system log ons. But where you can define it, you should.\n      Most of the time the userId is fully qualfied such as an email address\t   \"\u003e\u003cspan/\u003e\u003c/span\u003e\u003c/td\u003e\u003c/tr\u003e\u003c/table\u003e\u003ch3\u003eSignatures\u003c/h3\u003e\u003ctable class\u003d\"grid\"\u003e\u003ctr\u003e\u003ctd\u003e-\u003c/td\u003e\u003ctd\u003e\u003cb\u003eType\u003c/b\u003e\u003c/td\u003e\u003ctd\u003e\u003cb\u003eWhen\u003c/b\u003e\u003c/td\u003e\u003ctd\u003e\u003cb\u003eWho\u003c/b\u003e\u003c/td\u003e\u003ctd\u003e\u003cb\u003eTargetFormat\u003c/b\u003e\u003c/td\u003e\u003ctd\u003e\u003cb\u003eSigFormat\u003c/b\u003e\u003c/td\u003e\u003ctd\u003e\u003cb\u003eData\u003c/b\u003e\u003c/td\u003e\u003c/tr\u003e\u003ctr\u003e\u003ctd\u003e*\u003c/td\u003e\u003ctd\u003e\u003cspan title\u003d\"  verification signature  \"\u003eVerification Signature (Details: urn:iso-astm:E1762-95:2013 code 1.2.840.10065.1.12.1.5 \u003d \u0027Verification Signature\u0027, stated as \u0027Verification Signature\u0027)\u003c/span\u003e\u003c/td\u003e\u003ctd\u003eAug 26, 2015, 10:39:24 PM\u003c/td\u003e\u003ctd\u003e\u003ca href\u003d\"practitioner-example-xcda-author.html\"\u003ePractitioner/xcda-author\u003c/a\u003e \u0026quot;Harold HIPPOCRATES\u0026quot;\u003c/td\u003e\u003ctd\u003eapplication/fhir+xml\u003c/td\u003e\u003ctd\u003eapplication/signature+xml\u003c/td\u003e\u003ctd\u003eLi4u\u003c/td\u003e\u003c/tr\u003e\u003c/table\u003e\u003c/div\u003e"},"target":[{"reference":"DocumentReference/example/_history/4"}],"recorded":"2015-08-27T08:39:24+10:00","authorization":[{"concept":{"coding":[{"system":"http://terminology.hl7.org/CodeSystem/v3-ActReason","code":"TREAT","display":"treatment"}]}}],"activity":{"coding":[{"system":"http://terminology.hl7.org/CodeSystem/v3-DocumentCompletion","code":"AU","display":"authenticated"}]},"agent":[{"type":{"coding":[{"system":"http://terminology.hl7.org/CodeSystem/contractsignertypecodes","code":"VERF"}]},"who":{"identifier":{"system":"urn:ietf:rfc:3986","value":"mailto://hhd@ssa.gov"}}}],"signature":[{"type":[{"system":"urn:iso-astm:E1762-95:2013","code":"1.2.840.10065.1.12.1.5","display":"Verification Signature"}],"when":"2015-08-27T08:39:24+10:00","who":{"reference":"Practitioner/xcda-author"},"targetFormat":"application/fhir+xml","sigFormat":"application/signature+xml","data":"Li4u"}]}
{"resourceType":"Provenance","id":"example-import","text":{"status":"generated","div":"\u003cdiv xmlns\u003d\"http://www.w3.org/1999/xhtml\"\u003e\u003cp\u003e\u003cb\u003eGenerated Narrative: Provenance\u003c/b\u003e\u003ca name\u003d\"example-import\"\u003e \u003c/a\u003e\u003c/p\u003e\u003cdiv style\u003d\"display: inline-block; background-color: #d9e0e7; padding: 6px; margin: 4px; border: 1px solid #8da1b4; border-radius: 5px; line-height: 60%\"\u003e\u003cp style\u003d\"margin-bottom: 0px\"\u003eResource Provenance \u0026quot;example-import\u0026quot; \u003c/p\u003e\u003c/div\u003e\u003cp\u003e\u003cb\u003etarget\u003c/b\u003e: \u003c/p\u003e\u003cul\u003e\u003cli\u003e\u003ca href\u003d\"condition-example.html\"\u003eCondition/example\u003c/a\u003e\u003c/li\u003e\u003cli\u003e\u003ca href\u003d\"condition-example2.html\"\u003eCondition/example2\u003c/a\u003e\u003c/li\u003e\u003cli\u003e\u003ca href\u003d\"encounter-example.html\"\u003eEncounter/example\u003c/a\u003e\u003c/li\u003e\u003cli\u003e\u003ca href\u003d\"immunization-example.html\"\u003eImmunization/example\u003c/a\u003e\u003c/li\u003e\u003c/ul\u003e\u003cp\u003e\u003cb\u003erecorded\u003c/b\u003e: Jun 26, 2015, 10:39:24 PM\u003c/p\u003e\u003cp\u003e\u003cb\u003epolicy\u003c/b\u003e: \u003ccode\u003eurn:ihe:pcc:qedm:2017:document-provenance-policy\u003c/code\u003e\u003c/p\u003e\u003cp\u003e\u003cb\u003eactivity\u003c/b\u003e: wasDerivedFrom \u003cspan style\u003d\"background: LightGoldenRodYellow; margin: 4px; border: 1px solid khaki\"\u003e (\u003ca href\u003d\"codesystem-w3c-provenance-activity-type.html\"\u003eW3c Provenance Activity Type\u003c/a\u003e#Derivation)\u003c/span\u003e\u003c/p\u003e\u003cp\u003e\u003cb\u003epatient\u003c/b\u003e: \u003ca href\u003d\"patient-example.html\"\u003ePatient/example\u003c/a\u003e \u0026quot;Peter CHALMERS\u0026quot;\u003c/p\u003e\u003ch3\u003eAgents\u003c/h3\u003e\u003ctable class\u003d\"grid\"\u003e\u003ctr\u003e\u003ctd\u003e-\u003c/td\u003e\u003ctd\u003e\u003cb\u003eType\u003c/b\u003e\u003c/td\u003e\u003ctd\u003e\u003cb\u003eWho\u003c/b\u003e\u003c/td\u003e\u003c/tr\u003e\u003ctr\u003e\u003ctd\u003e*\u003c/td\u003e\u003ctd\u003eAssembler \u003cspan style\u003d\"background: LightGoldenRodYellow; margin: 4px; border: 1px solid khaki\"\u003e (\u003ca href\u003d\"http://terminology.hl7.org/5.1.0/CodeSystem-provenance-participant-type.html\"\u003eProvenance participant type\u003c/a\u003e#assembler)\u003c/span\u003e\u003c/td\u003e\u003ctd\u003e\u003cspan\u003e: Device/software\u003c/span\u003e\u003c/td\u003e\u003c/tr\u003e\u003c/table\u003e\u003ch3\u003eEntities\u003c/h3\u003e\u003ctable class\u003d\"grid\"\u003e\u003ctr\u003e\u003ctd\u003e-\u003c/td\u003e\u003ctd\u003e\u003cb\u003eRole\u003c/b\u003e\u003c/td\u003e\u003ctd\u003e\u003cb\u003eWhat\u003c/b\u003e\u003c/td\u003e\u003c/tr\u003e\u003ctr\u003e\u003ctd\u003e*\u003c/td\u003e\u003ctd\u003esource\u003c/td\u003e\u003ctd\u003e\u003ca href\u003d\"documentreference-example.html\"\u003eDocumentReference/example\u003c/a\u003e\u003c/td\u003e\u003c/tr\u003e\u003c/table\u003e\u003c/div\u003e"},"target":[{"reference":"Condition/example"},{"reference":"Condition/example2"},{"reference":"Encounter/example"},{"reference":"Immunization/example"}],"recorded":"2015-06-27T08:39:24+10:00","policy":["urn:ihe:pcc:qedm:2017:document-provenance-policy"],"activity":{"coding":[{"system":"http://hl7.org/fhir/w3c-provenance-activity-type","code":"Derivation"}]},"patient":{"reference":"Patient/example"},"agent":[{"id":"a1","type":{"coding":[{"system":"http://terminology.hl7.org/CodeSystem/provenance-participant-type","code":"assembler"}]},"who":{"display":"Device/software"}}],"entity":[{"role":"source","what":{"reference":"DocumentReference/example"}}]}
{"resourceType":"Provenance","id":"example3","text":{"status":"generated","div":"\u003cdiv xmlns\u003d\"http://www.w3.org/1999/xhtml\"\u003e\u003cp\u003e\u003cb\u003eGenerated Narrative: Provenance\u003c/b\u003e\u003ca name\u003d\"example3\"\u003e \u003c/a\u003e\u003c/p\u003e\u003cdiv style\u003d\"display: inline-block; background-color: #d9e0e7; padding: 6px; margin: 4px; border: 1px solid #8da1b4; border-radius: 5px; line-height: 60%\"\u003e\u003cp style\u003d\"margin-bottom: 0px\"\u003eResource Provenance \u0026quot;example3\u0026quot; \u003c/p\u003e\u003c/div\u003e\u003cp\u003e\u003cb\u003etarget\u003c/b\u003e: \u003cspan title\u003d\"  \n    Use path when the target resource doesn\u0027t have an id to point to\n    Note that the path is constrained to simple FHIRPath - see \n    https://hl7.org/fhir/fhirpath.html#simple\n    \n    This asserts that the follow up note came from a different author than\n    the rest of the Procedure (see Provenance/example)\n   \"\u003e\u003ca href\u003d\"procedure-example.html\"\u003eProcedure/example/_history/1\u003c/a\u003e(#/Procedure.followUp.text)\u003c/span\u003e\u003c/p\u003e\u003cp\u003e\u003cb\u003erecorded\u003c/b\u003e: Dec 8, 2021, 5:54:24 AM\u003c/p\u003e\u003ch3\u003eAgents\u003c/h3\u003e\u003ctable class\u003d\"grid\"\u003e\u003ctr\u003e\u003ctd\u003e-\u003c/td\u003e\u003ctd\u003e\u003cb\u003eType\u003c/b\u003e\u003c/td\u003e\u003ctd\u003e\u003cb\u003eWho\u003c/b\u003e\u003c/td\u003e\u003c/tr\u003e\u003ctr\u003e\u003ctd\u003e*\u003c/td\u003e\u003ctd\u003eauthor (originator) \u003cspan style\u003d\"background: LightGoldenRodYellow; margin: 4px; border: 1px solid khaki\"\u003e (\u003ca href\u003d\"http://terminology.hl7.org/5.1.0/CodeSystem-v3-ParticipationType.html\"\u003eParticipationType\u003c/a\u003e#AUT)\u003c/span\u003e\u003c/td\u003e\u003ctd\u003e\u003ca href\u003d\"practitioner-example-f007-sh.html\"\u003ePractitioner/f007\u003c/a\u003e \u0026quot;Simone HEPS\u0026quot;\u003c/td\u003e\u003c/tr\u003e\u003c/table\u003e\u003c/div\u003e"},"target":[{"extension":[{"url":"http://hl7.org/fhir/StructureDefinition/targetPath","valueString":"Procedure.followUp.text"}],"reference":"Procedure/example/_history/1"}],"recorded":"2021-12-08T16:54:24+11:00","agent":[{"type":{"coding":[{"system":"http://terminology.hl7.org/CodeSystem/v3-ParticipationType","code":"AUT"}]},"who":{"reference":"Practitioner/f007"}}]}