{"resourceType":"CarePlan","id":"f002","text":{"status":"generated","div":"\u003cdiv xmlns\u003d\"http://www.w3.org/1999/xhtml\"\u003e\u003cp\u003e\u003cb\u003eGenerated Narrative: CarePlan\u003c/b\u003e\u003ca name\u003d\"f002\"\u003e \u003c/a\u003e\u003c/p\u003e\u003cdiv style\u003d\"display: inline-block; background-color: #d9e0e7; padding: 6px; margin: 4px; border: 1px solid #8da1b4; border-radius: 5px; line-height: 60%\"\u003e\u003cp style\u003d\"margin-bottom: 0px\"\u003eResource CarePlan \u0026quot;f002\u0026quot; \u003c/p\u003e\u003c/div\u003e\u003cp\u003e\u003cb\u003eidentifier\u003c/b\u003e: id: CP2934 (use: OFFICIAL)\u003c/p\u003e\u003cp\u003e\u003cb\u003estatus\u003c/b\u003e: completed\u003c/p\u003e\u003cp\u003e\u003cb\u003eintent\u003c/b\u003e: plan\u003c/p\u003e\u003cp\u003e\u003cb\u003esubject\u003c/b\u003e: \u003ca href\u003d\"patient-example-f001-pieter.html\"\u003ePatient/f001: P. van de Heuvel\u003c/a\u003e \u0026quot;Pieter VAN DE HEUVEL\u0026quot;\u003c/p\u003e\u003cp\u003e\u003cb\u003eperiod\u003c/b\u003e: 2011-07-06 --\u0026gt; 2013-07-07\u003c/p\u003e\u003cp\u003e\u003cb\u003ecareTeam\u003c/b\u003e: \u003ca name\u003d\"careteam\"\u003e \u003c/a\u003e\u003c/p\u003e\u003cblockquote\u003e\u003cp/\u003e\u003cp\u003e\u003ca name\u003d\"careteam\"\u003e \u003c/a\u003e\u003c/p\u003e\u003ch3\u003eParticipants\u003c/h3\u003e\u003ctable class\u003d\"grid\"\u003e\u003ctr\u003e\u003ctd style\u003d\"display: none\"\u003e-\u003c/td\u003e\u003ctd\u003e\u003cb\u003eMember\u003c/b\u003e\u003c/td\u003e\u003c/tr\u003e\u003ctr\u003e\u003ctd style\u003d\"display: none\"\u003e*\u003c/td\u003e\u003ctd\u003e\u003ca href\u003d\"practitioner-example-f003-mv.html\"\u003ePractitioner/f003: M.I.M. Versteegh\u003c/a\u003e \u0026quot;Marc VERSTEEGH\u0026quot;\u003c/td\u003e\u003c/tr\u003e\u003c/table\u003e\u003c/blockquote\u003e\u003ch3\u003eAddresses\u003c/h3\u003e\u003ctable class\u003d\"grid\"\u003e\u003ctr\u003e\u003ctd style\u003d\"display: none\"\u003e-\u003c/td\u003e\u003ctd\u003e\u003cb\u003eReference\u003c/b\u003e\u003c/td\u003e\u003c/tr\u003e\u003ctr\u003e\u003ctd style\u003d\"display: none\"\u003e*\u003c/td\u003e\u003ctd\u003e\u003ca href\u003d\"condition-example-f201-fever.html\"\u003eCondition/f201: ?????\u003c/a\u003e\u003c/td\u003e\u003c/tr\u003e\u003c/table\u003e\u003cp\u003e\u003cb\u003egoal\u003c/b\u003e: \u003ca name\u003d\"goal\"\u003e \u003c/a\u003e\u003c/p\u003e\u003cblockquote\u003e\u003cp/\u003e\u003cp\u003e\u003ca name\u003d\"goal\"\u003e \u003c/a\u003e\u003c/p\u003e\u003cp\u003e\u003cb\u003elifecycleStatus\u003c/b\u003e: completed\u003c/p\u003e\u003cp\u003e\u003cb\u003eachievementStatus\u003c/b\u003e: Achieved \u003cspan style\u003d\"background: LightGoldenRodYellow; margin: 4px; border: 1px solid khaki\"\u003e (\u003ca href\u003d\"http://terminology.hl7.org/5.4.0/CodeSystem-goal-achievement.html\"\u003eGoal achievement status\u003c/a\u003e#achieved)\u003c/span\u003e\u003c/p\u003e\u003cp\u003e\u003cb\u003edescription\u003c/b\u003e: succesful surgery on lung of patient \u003cspan style\u003d\"background: LightGoldenRodYellow; margin: 4px; border: 1px solid khaki\"\u003e ()\u003c/span\u003e\u003c/p\u003e\u003cp\u003e\u003cb\u003esubject\u003c/b\u003e: \u003ca href\u003d\"patient-example-f001-pieter.html\"\u003ePatient/f001: P. van de Heuvel\u003c/a\u003e \u0026quot;Pieter VAN DE HEUVEL\u0026quot;\u003c/p\u003e\u003cp\u003e\u003cb\u003enote\u003c/b\u003e: goal accomplished with minor complications\u003c/p\u003e\u003c/blockquote\u003e\u003ch3\u003eActivities\u003c/h3\u003e\u003ctable class\u003d\"grid\"\u003e\u003ctr\u003e\u003ctd style\u003d\"display: none\"\u003e-\u003c/td\u003e\u003ctd\u003e\u003cb\u003ePlannedActivityReference\u003c/b\u003e\u003c/td\u003e\u003c/tr\u003e\u003ctr\u003e\u003ctd style\u003d\"display: none\"\u003e*\u003c/td\u003e\u003ctd\u003e\u003ca name\u003d\"activity\"\u003e \u003c/a\u003e\u003cblockquote\u003e\u003cp/\u003e\u003cp\u003e\u003ca name\u003d\"activity\"\u003e \u003c/a\u003e\u003c/p\u003e\u003cp\u003e\u003cb\u003estatus\u003c/b\u003e: completed\u003c/p\u003e\u003cp\u003e\u003cb\u003eintent\u003c/b\u003e: order\u003c/p\u003e\u003ch3\u003eCodes\u003c/h3\u003e\u003ctable class\u003d\"grid\"\u003e\u003ctr\u003e\u003ctd style\u003d\"display: none\"\u003e-\u003c/td\u003e\u003ctd\u003e\u003cb\u003eConcept\u003c/b\u003e\u003c/td\u003e\u003c/tr\u003e\u003ctr\u003e\u003ctd style\u003d\"display: none\"\u003e*\u003c/td\u003e\u003ctd\u003ePartial lobectomy of lung \u003cspan style\u003d\"background: LightGoldenRodYellow; margin: 4px; border: 1px solid khaki\"\u003e (\u003ca href\u003d\"https://browser.ihtsdotools.org/\"\u003eSNOMED CT\u003c/a\u003e#359615001)\u003c/span\u003e\u003c/td\u003e\u003c/tr\u003e\u003c/table\u003e\u003cp\u003e\u003cb\u003esubject\u003c/b\u003e: \u003ca href\u003d\"patient-example-f001-pieter.html\"\u003ePatient/f001: P. van de Heuvel\u003c/a\u003e \u0026quot;Pieter VAN DE HEUVEL\u0026quot;\u003c/p\u003e\u003cp\u003e\u003cb\u003eoccurrence\u003c/b\u003e: 2011-07-07T09:30:10+01:00\u003c/p\u003e\u003cp\u003e\u003cb\u003eperformer\u003c/b\u003e: \u003ca href\u003d\"practitioner-example-f003-mv.html\"\u003ePractitioner/f003: M.I.M. Versteegh\u003c/a\u003e \u0026quot;Marc VERSTEEGH\u0026quot;\u003c/p\u003e\u003c/blockquote\u003e\u003c/td\u003e\u003c/tr\u003e\u003c/table\u003e\u003c/div\u003e"},"contained":[{"resourceType":"CareTeam","id":"careteam","participant":[{"member":{"reference":"Practitioner/f003","display":"M.I.M. Versteegh"}}]},{"resourceType":"Goal","id":"goal","lifecycleStatus":"completed","achievementStatus":{"coding":[{"system":"http://terminology.hl7.org/CodeSystem/goal-achievement","code":"achieved","display":"Achieved"}],"text":"Achieved"},"description":{"text":"succesful surgery on lung of patient"},"subject":{"reference":"Patient/f001","display":"P. van de Heuvel"},"note":[{"text":"goal accomplished with minor complications"}]},{"resourceType":"ServiceRequest","id":"activity","status":"completed","intent":"order","code":{"concept":{"coding":[{"system":"http://snomed.info/sct","code":"359615001","display":"Partial lobectomy of lung"}]}},"subject":{"reference":"Patient/f001","display":"P. van de Heuvel"},"occurrenceDateTime":"2011-07-07T09:30:10+01:00","performer":[{"reference":"Practitioner/f003","display":"M.I.M. Versteegh"}]}],"identifier":[{"use":"official","system":"http://www.bmc.nl/zorgportal/identifiers/careplans","value":"CP2934"}],"status":"completed","intent":"plan","subject":{"reference":"Patient/f001","display":"P. van de Heuvel"},"period":{"start":"2011-07-06","end":"2013-07-07"},"careTeam":[{"reference":"#careteam"}],"addresses":[{"reference":{"reference":"Condition/f201","display":"?????"}}],"goal":[{"reference":"#goal"}],"activity":[{"plannedActivityReference":{"reference":"#activity"}}]}
{"resourceType":"CarePlan","id":"f202","text":{"status":"generated","div":"\u003cdiv xmlns\u003d\"http://www.w3.org/1999/xhtml\"\u003e\u003cp\u003e\u003cb\u003eGenerated Narrative: CarePlan\u003c/b\u003e\u003ca name\u003d\"f202\"\u003e \u003c/a\u003e\u003c/p\u003e\u003cdiv style\u003d\"display: inline-block; background-color: #d9e0e7; padding: 6px; margin: 4px; border: 1px solid #8da1b4; border-radius: 5px; line-height: 60%\"\u003e\u003cp style\u003d\"margin-bottom: 0px\"\u003eResource CarePlan \u0026quot;f202\u0026quot; \u003c/p\u003e\u003c/div\u003e\u003cp\u003e\u003cb\u003estatus\u003c/b\u003e: active\u003c/p\u003e\u003cp\u003e\u003cb\u003eintent\u003c/b\u003e: plan\u003c/p\u003e\u003cp\u003e\u003cb\u003esubject\u003c/b\u003e: \u003ca href\u003d\"patient-example-f201-roel.html\"\u003ePatient/f201: Roel\u003c/a\u003e \u0026quot;Roel\u0026quot;\u003c/p\u003e\u003cp\u003e\u003cb\u003ecareTeam\u003c/b\u003e: \u003ca name\u003d\"careteam\"\u003e \u003c/a\u003e\u003c/p\u003e\u003cblockquote\u003e\u003cp/\u003e\u003cp\u003e\u003ca name\u003d\"careteam\"\u003e \u003c/a\u003e\u003c/p\u003e\u003ch3\u003eParticipants\u003c/h3\u003e\u003ctable class\u003d\"grid\"\u003e\u003ctr\u003e\u003ctd style\u003d\"display: none\"\u003e-\u003c/td\u003e\u003ctd\u003e\u003cb\u003eRole\u003c/b\u003e\u003c/td\u003e\u003ctd\u003e\u003cb\u003eMember\u003c/b\u003e\u003c/td\u003e\u003c/tr\u003e\u003ctr\u003e\u003ctd style\u003d\"display: none\"\u003e*\u003c/td\u003e\u003ctd\u003eTreated with \u003cspan style\u003d\"background: LightGoldenRodYellow; margin: 4px; border: 1px solid khaki\"\u003e (\u003ca href\u003d\"https://browser.ihtsdotools.org/\"\u003eSNOMED CT\u003c/a\u003e#28995006)\u003c/span\u003e\u003c/td\u003e\u003ctd\u003e\u003ca href\u003d\"practitioner-example-f201-ab.html\"\u003ePractitioner/f201: Dokter Bronsig\u003c/a\u003e \u0026quot;Dokter Bronsig\u0026quot;\u003c/td\u003e\u003c/tr\u003e\u003c/table\u003e\u003c/blockquote\u003e\u003ch3\u003eAddresses\u003c/h3\u003e\u003ctable class\u003d\"grid\"\u003e\u003ctr\u003e\u003ctd style\u003d\"display: none\"\u003e-\u003c/td\u003e\u003ctd\u003e\u003cb\u003eReference\u003c/b\u003e\u003c/td\u003e\u003c/tr\u003e\u003ctr\u003e\u003ctd style\u003d\"display: none\"\u003e*\u003c/td\u003e\u003ctd\u003e\u003ca href\u003d\"condition-example-f202-malignancy.html\"\u003eCondition/f202: Roel\u0027s head-neck tumor\u003c/a\u003e\u003c/td\u003e\u003c/tr\u003e\u003c/table\u003e\u003cp\u003e\u003cb\u003egoal\u003c/b\u003e: \u003ca name\u003d\"goal\"\u003e \u003c/a\u003e\u003c/p\u003e\u003cblockquote\u003e\u003cp/\u003e\u003cp\u003e\u003ca name\u003d\"goal\"\u003e \u003c/a\u003e\u003c/p\u003e\u003cp\u003e\u003cb\u003elifecycleStatus\u003c/b\u003e: active\u003c/p\u003e\u003cp\u003e\u003cb\u003edescription\u003c/b\u003e: Elimination of the spenoid bone tumor \u003cspan style\u003d\"background: LightGoldenRodYellow; margin: 4px; border: 1px solid khaki\"\u003e ()\u003c/span\u003e\u003c/p\u003e\u003cp\u003e\u003cb\u003esubject\u003c/b\u003e: \u003ca href\u003d\"patient-example-f201-roel.html\"\u003ePatient/f201: Roel\u003c/a\u003e \u0026quot;Roel\u0026quot;\u003c/p\u003e\u003c/blockquote\u003e\u003cblockquote\u003e\u003cp\u003e\u003cb\u003eactivity\u003c/b\u003e\u003c/p\u003e\u003ch3\u003ePerformedActivities\u003c/h3\u003e\u003ctable class\u003d\"grid\"\u003e\u003ctr\u003e\u003ctd style\u003d\"display: none\"\u003e-\u003c/td\u003e\u003ctd\u003e\u003cb\u003eReference\u003c/b\u003e\u003c/td\u003e\u003c/tr\u003e\u003ctr\u003e\u003ctd style\u003d\"display: none\"\u003e*\u003c/td\u003e\u003ctd\u003e\u003ca href\u003d\"procedure-example-f201-tpf.html\"\u003eProcedure/f201: Roel\u0027s Chemotherapy\u003c/a\u003e\u003c/td\u003e\u003c/tr\u003e\u003c/table\u003e\u003cp\u003e\u003cb\u003eplannedActivityReference\u003c/b\u003e: \u003cspan title\u003d\"  Chemotherapy  \"\u003e\u003ca href\u003d\"requestorchestration-example.html\"\u003eRequestOrchestration/example\u003c/a\u003e\u003c/span\u003e\u003c/p\u003e\u003c/blockquote\u003e\u003c/div\u003e"},"contained":[{"resourceType":"CareTeam","id":"careteam","participant":[{"role":{"coding":[{"system":"http://snomed.info/sct","code":"28995006","display":"Treated with"}]},"member":{"reference":"Practitioner/f201","display":"Dokter Bronsig"}}]},{"resourceType":"Goal","id":"goal","lifecycleStatus":"active","description":{"text":"Elimination of the spenoid bone tumor"},"subject":{"reference":"Patient/f201","display":"Roel"}}],"status":"active","intent":"plan","subject":{"reference":"Patient/f201","display":"Roel"},"careTeam":[{"reference":"#careteam"}],"addresses":[{"reference":{"reference":"Condition/f202","display":"Roel\u0027s head-neck tumor"}}],"goal":[{"reference":"#goal"}],"activity":[{"performedActivity":[{"reference":{"reference":"Procedure/f201","display":"Roel\u0027s Chemotherapy"}}],"plannedActivityReference":{"reference":"RequestOrchestration/example"}}]}
{"resourceType":"CarePlan","id":"obesity-narrative","text":{"status":"additional","div":"\u003cdiv xmlns\u003d\"http://www.w3.org/1999/xhtml\"\u003e\n      \u003cp\u003e Care plan to address obesity.  Goal is a target weight of 160 to 180 lbs.  Activities include diet and exercise.\u003c/p\u003e\n    \u003c/div\u003e"},"status":"active","intent":"plan","subject":{"reference":"Patient/example","display":"Peter James Chalmers"}}
{"resourceType":"CarePlan","id":"example","text":{"status":"additional","div":"\u003cdiv xmlns\u003d\"http://www.w3.org/1999/xhtml\"\u003e\n      \u003cp\u003e A simple care plan to indicate a patient taking their weight once a day because of obesity.\u003c/p\u003e\n    \u003c/div\u003e"},"contained":[{"resourceType":"Condition","id":"p1","clinicalStatus":{"coding":[{"system":"http://terminology.hl7.org/CodeSystem/condition-clinical","code":"active"}]},"verificationStatus":{"coding":[{"system":"http://terminology.hl7.org/CodeSystem/condition-ver-status","code":"confirmed"}]},"code":{"text":"Obesity"},"subject":{"reference":"Patient/example","display":"Peter James Chalmers"}}],"identifier":[{"value":"12345"}],"instantiatesUri":["http://example.org/protocol-for-obesity"],"basedOn":[{"display":"Management of Type 2 Diabetes"}],"replaces":[{"display":"Plan from urgent care clinic"}],"partOf":[{"display":"Overall wellness plan"}],"status":"active","intent":"plan","category":[{"text":"Weight management plan"}],"description":"Manage obesity and weight loss","subject":{"reference":"Patient/example","display":"Peter James Chalmers"},"encounter":{"reference":"Encounter/home"},"period":{"end":"2017-06-01"},"created":"2016-01-01","custodian":{"reference":"Practitioner/example","display":"Dr Adam Careful"},"careTeam":[{"reference":"CareTeam/example"}],"addresses":[{"reference":{"reference":"#p1","display":"obesity"}}],"goal":[{"reference":"Goal/example"}],"activity":[{"performedActivity":[{"concept":{"coding":[{"system":"http://snomed.info/sct","code":"6397004","display":"Muscular strength development exercise"}]}}],"plannedActivityReference":{"reference":"ServiceRequest/benchpress"}}]}
{"resourceType":"CarePlan","id":"f201","text":{"status":"generated","div":"\u003cdiv xmlns\u003d\"http://www.w3.org/1999/xhtml\"\u003e\u003cp\u003e\u003cb\u003eGenerated Narrative: CarePlan\u003c/b\u003e\u003ca name\u003d\"f201\"\u003e \u003c/a\u003e\u003c/p\u003e\u003cdiv style\u003d\"display: inline-block; background-color: #d9e0e7; padding: 6px; margin: 4px; border: 1px solid #8da1b4; border-radius: 5px; line-height: 60%\"\u003e\u003cp style\u003d\"margin-bottom: 0px\"\u003eResource CarePlan \u0026quot;f201\u0026quot; \u003c/p\u003e\u003c/div\u003e\u003cp\u003e\u003cb\u003estatus\u003c/b\u003e: draft\u003c/p\u003e\u003cp\u003e\u003cb\u003eintent\u003c/b\u003e: proposal\u003c/p\u003e\u003cp\u003e\u003cb\u003esubject\u003c/b\u003e: \u003cspan title\u003d\" This careplan is \u0026quot;ended\u0026quot;, but was never closed in the EHR, wherefore the status is \u0026quot;planned\u0026quot; \"\u003e\u003ca href\u003d\"patient-example-f201-roel.html\"\u003ePatient/f201: Roel\u003c/a\u003e \u0026quot;Roel\u0026quot;\u003c/span\u003e\u003c/p\u003e\u003cp\u003e\u003cb\u003eperiod\u003c/b\u003e: 2013-03-11 --\u0026gt; 2013-03-13\u003c/p\u003e\u003cp\u003e\u003cb\u003ecareTeam\u003c/b\u003e: \u003ca name\u003d\"careteam\"\u003e \u003c/a\u003e\u003c/p\u003e\u003cblockquote\u003e\u003cp/\u003e\u003cp\u003e\u003ca name\u003d\"careteam\"\u003e \u003c/a\u003e\u003c/p\u003e\u003cblockquote\u003e\u003cp\u003e\u003cb\u003eparticipant\u003c/b\u003e\u003c/p\u003e\u003cp\u003e\u003cb\u003erole\u003c/b\u003e: Review of care plan \u003cspan style\u003d\"background: LightGoldenRodYellow; margin: 4px; border: 1px solid khaki\"\u003e (\u003ca href\u003d\"https://browser.ihtsdotools.org/\"\u003eSNOMED CT\u003c/a\u003e#425268008)\u003c/span\u003e\u003c/p\u003e\u003cp\u003e\u003cb\u003emember\u003c/b\u003e: \u003ca href\u003d\"practitioner-example-f201-ab.html\"\u003ePractitioner/f201: Dokter Bronsig\u003c/a\u003e \u0026quot;Dokter Bronsig\u0026quot;\u003c/p\u003e\u003c/blockquote\u003e\u003cblockquote\u003e\u003cp\u003e\u003cb\u003eparticipant\u003c/b\u003e\u003c/p\u003e\u003cp\u003e\u003cb\u003erole\u003c/b\u003e: Carer \u003cspan style\u003d\"background: LightGoldenRodYellow; margin: 4px; border: 1px solid khaki\"\u003e (\u003ca href\u003d\"https://browser.ihtsdotools.org/\"\u003eSNOMED CT\u003c/a\u003e#229774002)\u003c/span\u003e\u003c/p\u003e\u003cp\u003e\u003cb\u003emember\u003c/b\u003e: \u003ca href\u003d\"practitioner-example-f204-ce.html\"\u003ePractitioner/f204: Nurse Carla Espinosa\u003c/a\u003e \u0026quot;Carla Espinosa\u0026quot;\u003c/p\u003e\u003c/blockquote\u003e\u003c/blockquote\u003e\u003ch3\u003eAddresses\u003c/h3\u003e\u003ctable class\u003d\"grid\"\u003e\u003ctr\u003e\u003ctd style\u003d\"display: none\"\u003e-\u003c/td\u003e\u003ctd\u003e\u003cb\u003eReference\u003c/b\u003e\u003c/td\u003e\u003c/tr\u003e\u003ctr\u003e\u003ctd style\u003d\"display: none\"\u003e*\u003c/td\u003e\u003ctd\u003e\u003ca href\u003d\"condition-example-f204-renal.html\"\u003eCondition/f204: Roel\u0027s renal insufficiency\u003c/a\u003e\u003c/td\u003e\u003c/tr\u003e\u003c/table\u003e\u003cp\u003e\u003cb\u003egoal\u003c/b\u003e: \u003ca name\u003d\"goal\"\u003e \u003c/a\u003e\u003c/p\u003e\u003cblockquote\u003e\u003cp/\u003e\u003cp\u003e\u003ca name\u003d\"goal\"\u003e \u003c/a\u003e\u003c/p\u003e\u003cp\u003e\u003cb\u003elifecycleStatus\u003c/b\u003e: completed\u003c/p\u003e\u003cp\u003e\u003cb\u003eachievementStatus\u003c/b\u003e: Achieved \u003cspan style\u003d\"background: LightGoldenRodYellow; margin: 4px; border: 1px solid khaki\"\u003e (\u003ca href\u003d\"http://terminology.hl7.org/5.4.0/CodeSystem-goal-achievement.html\"\u003eGoal achievement status\u003c/a\u003e#achieved)\u003c/span\u003e\u003c/p\u003e\u003cp\u003e\u003cb\u003edescription\u003c/b\u003e: Re-established renal function with at least healthy nutrients. \u003cspan style\u003d\"background: LightGoldenRodYellow; margin: 4px; border: 1px solid khaki\"\u003e ()\u003c/span\u003e\u003c/p\u003e\u003cp\u003e\u003cb\u003esubject\u003c/b\u003e: \u003ca href\u003d\"patient-example-f201-roel.html\"\u003ePatient/f201: Roel\u003c/a\u003e \u0026quot;Roel\u0026quot;\u003c/p\u003e\u003c/blockquote\u003e\u003cblockquote\u003e\u003cp\u003e\u003cb\u003eactivity\u003c/b\u003e\u003c/p\u003e\u003cp\u003e\u003cb\u003eplannedActivityReference\u003c/b\u003e: \u003cspan title\u003d\" Potassium supplement \"\u003e\u003ca href\u003d\"nutritionorder-example-renaldiet.html\"\u003eNutritionOrder/renaldiet\u003c/a\u003e\u003c/span\u003e\u003c/p\u003e\u003c/blockquote\u003e\u003cblockquote\u003e\u003cp\u003e\u003cb\u003eactivity\u003c/b\u003e\u003c/p\u003e\u003cp\u003e\u003cb\u003eplannedActivityReference\u003c/b\u003e: \u003cspan title\u003d\" Echo of the kidney \"\u003e\u003ca name\u003d\"activity\"\u003e \u003c/a\u003e\u003c/span\u003e\u003c/p\u003e\u003cblockquote\u003e\u003cp/\u003e\u003cp\u003e\u003ca name\u003d\"activity\"\u003e \u003c/a\u003e\u003c/p\u003e\u003cp\u003e\u003cb\u003estatus\u003c/b\u003e: completed\u003c/p\u003e\u003cp\u003e\u003cb\u003eintent\u003c/b\u003e: order\u003c/p\u003e\u003ch3\u003eCodes\u003c/h3\u003e\u003ctable class\u003d\"grid\"\u003e\u003ctr\u003e\u003ctd style\u003d\"display: none\"\u003e-\u003c/td\u003e\u003ctd\u003e\u003cb\u003eConcept\u003c/b\u003e\u003c/td\u003e\u003c/tr\u003e\u003ctr\u003e\u003ctd style\u003d\"display: none\"\u003e*\u003c/td\u003e\u003ctd\u003eEchography of kidney \u003cspan style\u003d\"background: LightGoldenRodYellow; margin: 4px; border: 1px solid khaki\"\u003e (\u003ca href\u003d\"https://browser.ihtsdotools.org/\"\u003eSNOMED CT\u003c/a\u003e#306005)\u003c/span\u003e\u003c/td\u003e\u003c/tr\u003e\u003c/table\u003e\u003cp\u003e\u003cb\u003esubject\u003c/b\u003e: \u003ca href\u003d\"patient-example-f201-roel.html\"\u003ePatient/f201: Roel\u003c/a\u003e \u0026quot;Roel\u0026quot;\u003c/p\u003e\u003c/blockquote\u003e\u003c/blockquote\u003e\u003c/div\u003e"},"contained":[{"resourceType":"CareTeam","id":"careteam","participant":[{"role":{"coding":[{"system":"http://snomed.info/sct","code":"425268008","display":"Review of care plan"}]},"member":{"reference":"Practitioner/f201","display":"Dokter Bronsig"}},{"role":{"coding":[{"system":"http://snomed.info/sct","code":"229774002","display":"Carer"}]},"member":{"reference":"Practitioner/f204","display":"Nurse Carla Espinosa"}}]},{"resourceType":"Goal","id":"goal","lifecycleStatus":"completed","achievementStatus":{"coding":[{"system":"http://terminology.hl7.org/CodeSystem/goal-achievement","code":"achieved","display":"Achieved"}],"text":"Achieved"},"description":{"text":"Re-established renal function with at least healthy nutrients."},"subject":{"reference":"Patient/f201","display":"Roel"}},{"resourceType":"ServiceRequest","id":"activity","status":"completed","intent":"order","code":{"concept":{"coding":[{"system":"http://snomed.info/sct","code":"306005","display":"Echography of kidney"}]}},"subject":{"reference":"Patient/f201","display":"Roel"}}],"status":"draft","intent":"proposal","subject":{"reference":"Patient/f201","display":"Roel"},"period":{"start":"2013-03-11","end":"2013-03-13"},"careTeam":[{"reference":"#careteam"}],"addresses":[{"reference":{"reference":"Condition/f204","display":"Roel\u0027s renal insufficiency"}}],"goal":[{"reference":"#goal"}],"activity":[{"plannedActivityReference":{"reference":"NutritionOrder/renaldiet"}},{"plannedActivityReference":{"reference":"#activity"}}]}
{"resourceType":"CarePlan","id":"gpvisit","text":{"status":"additional","div":"\u003cdiv xmlns\u003d\"http://www.w3.org/1999/xhtml\"\u003e\n      \u003cp\u003e  Represents the flow of a patient within a practice. The plan is created when\n        they arrive and represents the \u0027care\u0027 of the patient over the course of that encounter.\n        They first see the nurse for basic observations (BP, pulse, temp) then the doctor for\n        the consultation and finally the nurse again for a tetanus immunization. As the plan is\n        updated (e.g. a new activity added), different versions of the plan exist, and workflow timings\n        for reporting can be gained by examining the plan history. This example is the version after\n        seeing the doctor, and waiting for the nurse.The plan can either be created \u0027ad hoc\u0027 and modified as\n        the parient progresses, or start with a standard template (which can, of course, be altered to suit the patient.\u003c/p\u003e\n    \u003c/div\u003e"},"contained":[{"resourceType":"Condition","id":"p1","clinicalStatus":{"coding":[{"system":"http://terminology.hl7.org/CodeSystem/condition-clinical","code":"active"}]},"verificationStatus":{"coding":[{"system":"http://terminology.hl7.org/CodeSystem/condition-ver-status","code":"confirmed"}]},"code":{"text":"Overseas encounter"},"subject":{"reference":"Patient/100","display":"Peter James Chalmers"}},{"resourceType":"CareTeam","id":"careteam","participant":[{"id":"part1","role":{"coding":[{"system":"http://example.org/local","code":"nur"}],"text":"nurse"},"member":{"reference":"Practitioner/13","display":"Nurse Nancy"}},{"id":"part2","role":{"coding":[{"system":"http://example.org/local","code":"doc"}],"text":"doctor"},"member":{"reference":"Practitioner/14","display":"Doctor Dave"}}]},{"resourceType":"Goal","id":"goal","lifecycleStatus":"planned","description":{"text":"Complete consultation"},"subject":{"reference":"Patient/100","display":"Peter James Chalmers"}},{"resourceType":"Appointment","id":"activity-1","status":"fulfilled","description":"Nurse consultation","start":"2013-01-01T10:38:00+00:00","end":"2013-01-01T10:50:00+00:00","subject":{"reference":"Patient/100","display":"Peter James Chalmers"},"participant":[{"actor":{"reference":"Patient/100","display":"Peter James Chalmers"},"required":true,"status":"accepted"},{"type":[{"coding":[{"system":"http://terminology.hl7.org/CodeSystem/v3-ParticipationType","code":"ATND"}]}],"actor":{"reference":"Practitioner/13","display":"Nurse Nancy"},"required":true,"status":"accepted"}]},{"resourceType":"Appointment","id":"activity-2","status":"proposed","description":"Doctor Consultation","subject":{"reference":"Patient/100","display":"Peter James Chalmers"},"participant":[{"actor":{"reference":"Patient/100","display":"Peter James Chalmers"},"required":true,"status":"accepted"},{"type":[{"coding":[{"system":"http://terminology.hl7.org/CodeSystem/v3-ParticipationType","code":"ATND"}]}],"actor":{"reference":"Practitioner/14","display":"Doctor Dave"},"required":true,"status":"accepted"}]}],"status":"active","intent":"plan","subject":{"reference":"Patient/100","display":"Peter James Chalmers"},"period":{"start":"2013-01-01T10:30:00+00:00"},"careTeam":[{"reference":"#careteam"}],"addresses":[{"reference":{"reference":"#p1","display":"obesity"}}],"goal":[{"reference":"#goal"}],"activity":[{"performedActivity":[{"reference":{"reference":"Encounter/example"}}],"plannedActivityReference":{"reference":"#activity-1"}},{"plannedActivityReference":{"reference":"#activity-2"}}]}
{"resourceType":"CarePlan","id":"integrate","text":{"status":"generated","div":"\u003cdiv xmlns\u003d\"http://www.w3.org/1999/xhtml\"\u003e\n      \u003cp\u003ePatient family is not ready to commit to goal setting at this time.  Goal setting will be addressed in the future\u003c/p\u003e\n      \u003ctable\u003e\n        \u003cthead\u003e\n          \u003ctr\u003e\n            \u003cth\u003eStart Date\u003c/th\u003e\n            \u003cth\u003eGoal\u003c/th\u003e\n            \u003cth\u003eAction Steps\u003c/th\u003e\n            \u003cth\u003eStatus\u003c/th\u003e\n            \u003cth\u003eDate Last Updated\u003c/th\u003e\n            \u003cth\u003eComments\u003c/th\u003e\n          \u003c/tr\u003e\n        \u003c/thead\u003e\n        \u003ctbody\u003e\n          \u003ctr\u003e\n            \u003ctd\u003e10 Sep 2012\u003c/td\u003e\n            \u003ctd\u003eEve will lose weight and reduce her GERDS symptoms by improving her diet\u003c/td\u003e\n            \u003ctd\u003eEve will review photos of high and low density foods and share with her parents\u003c/td\u003e\n            \u003ctd\u003eNew Goal\u003c/td\u003e\n            \u003ctd\u003e10 Sep 2012\u003c/td\u003e\n            \u003ctd\u003e9/10/12 Eve eats one meal a day with her parents\u003c/td\u003e\n          \u003c/tr\u003e\n          \u003ctr\u003e\n            \u003ctd\u003e10 Sep 2012\u003c/td\u003e\n            \u003ctd\u003eEve will lose weight and reduce her GERDS symptoms by improving her diet\u003c/td\u003e\n            \u003ctd\u003eEve will ask her dad to asist her to put the head of her bed on blocks\u003c/td\u003e\n            \u003ctd\u003eNew Goal\u003c/td\u003e\n            \u003ctd\u003e10 Sep 2012\u003c/td\u003e\n            \u003ctd\u003e9/10/12 Eve will sleep in her bed more often than the couch\u003c/td\u003e\n          \u003c/tr\u003e\n          \u003ctr\u003e\n            \u003ctd\u003e10 Sep 2012\u003c/td\u003e\n            \u003ctd\u003eEve will improve her GERDS symptoms\u003c/td\u003e\n            \u003ctd\u003eEve will reduce her intake of coffee and chocolate\u003c/td\u003e\n            \u003ctd\u003eIn Process\u003c/td\u003e\n            \u003ctd\u003e10 Sep 2012\u003c/td\u003e\n            \u003ctd/\u003e\n          \u003c/tr\u003e\n          \u003ctr\u003e\n            \u003ctd\u003e27 Aug 2012\u003c/td\u003e\n            \u003ctd\u003eEve will increase her energy by being more active\u003c/td\u003e\n            \u003ctd\u003eEve will walk her friend\u0027s dog up and down a big hill 15-30 minutes 3 days a week\u003c/td\u003e\n            \u003ctd\u003eIn Process\u003c/td\u003e\n            \u003ctd\u003e10 Sep 2012\u003c/td\u003e\n            \u003ctd\u003e8/27/12 Eve would like to try for 5 days a week.  9/10/12 Eve is still walking the dogs.\u003c/td\u003e\n          \u003c/tr\u003e\n          \u003ctr\u003e\n            \u003ctd\u003e23 Jul 2012\u003c/td\u003e\n            \u003ctd\u003eEve will increase her energy by being more active\u003c/td\u003e\n            \u003ctd\u003eEve will walk 3 blocks to her parents house twice a week\u003c/td\u003e\n            \u003ctd\u003eIn Process\u003c/td\u003e\n            \u003ctd\u003e10 Sep 2012\u003c/td\u003e\n            \u003ctd\u003e8/13/12 Eve walked 4 times the last week.  9/10/12 Eve did not walk to her parents the last week, but has plans to start again\u003c/td\u003e\n          \u003c/tr\u003e\n          \u003ctr\u003e\n            \u003ctd\u003e23 Jul 2012\u003c/td\u003e\n            \u003ctd\u003eEve will set up her medications and take as prescribed\u003c/td\u003e\n            \u003ctd\u003eEve will us a calendar to check off after medications are taken\u003c/td\u003e\n            \u003ctd\u003eIn Process\u003c/td\u003e\n            \u003ctd\u003e13 Aug 2012\u003c/td\u003e\n            \u003ctd/\u003e\n          \u003c/tr\u003e\n          \u003ctr\u003e\n            \u003ctd\u003e23 Jul 2012\u003c/td\u003e\n            \u003ctd\u003eEve will restart her light treatments\u003c/td\u003e\n            \u003ctd\u003eEve will use her lights MWF after her shower for 3 minutes\u003c/td\u003e\n            \u003ctd\u003eIn Process\u003c/td\u003e\n            \u003ctd\u003e27 Aug 2012\u003c/td\u003e\n            \u003ctd\u003e8/13/12 After restarting the vinegar soaks the psoriasis is improved and Eve plans to treat the remainder with light treatments.  She plans to start this week.  8/27/12 Since her skin is improved Eve has not been using the light treatment as often, maybe once a week.  She would like to increase to 3 times a week again\u003c/td\u003e\n          \u003c/tr\u003e\n          \u003ctr\u003e\n            \u003ctd\u003e10 Jul 2012\u003c/td\u003e\n            \u003ctd\u003eEve will set up her medications and take as prescribed\u003c/td\u003e\n            \u003ctd\u003eEve will use a calendar of a chart to help her remember when to take her medications\u003c/td\u003e\n            \u003ctd\u003eIn Process\u003c/td\u003e\n            \u003ctd\u003e10 Sep 2012\u003c/td\u003e\n            \u003ctd\u003e7/23/12 Eve created a chart as a reminer to take the medications that do not fit in her pill box\u003c/td\u003e\n          \u003c/tr\u003e\n          \u003ctr\u003e\n            \u003ctd\u003e23 Jul 2012\u003c/td\u003e\n            \u003ctd\u003eEve will increase her energy by being more active\u003c/td\u003e\n            \u003ctd\u003eEve will start using stretch bands and one step 2 days a week Mon/Wed 6-7am and maybe Friday afternoon\u003c/td\u003e\n            \u003ctd\u003eOn-Hold\u003c/td\u003e\n            \u003ctd\u003e23 Aug 2012\u003c/td\u003e\n            \u003ctd\u003e7/30/12 will be able to esume exercise.  8/13/12 Eve prefers to focus on walking at this time\u003c/td\u003e\n          \u003c/tr\u003e\n          \u003ctr\u003e\n            \u003ctd\u003e10 Jul 2012\u003c/td\u003e\n            \u003ctd\u003eEve will set up her medications and take as prescribed\u003c/td\u003e\n            \u003ctd\u003eEve will match a printed medication worksheet with the medication bottles at home\u003c/td\u003e\n            \u003ctd\u003eCompleted\u003c/td\u003e\n            \u003ctd\u003e23 Jul 2012\u003c/td\u003e\n            \u003ctd/\u003e\n          \u003c/tr\u003e\n          \u003ctr\u003e\n            \u003ctd\u003e10 Jul 2012\u003c/td\u003e\n            \u003ctd\u003eEve will set up her medications and take as prescribed\u003c/td\u003e\n            \u003ctd\u003eEve will get a medication box to sort her pills.  She will have one for scheduled medications and one for as needed\u003c/td\u003e\n            \u003ctd\u003eCompleted\u003c/td\u003e\n            \u003ctd\u003e16 Jul 2012\u003c/td\u003e\n            \u003ctd\u003e7/16/12 Eve now has some of her medications set up in pill packs by her pharmacist\u003c/td\u003e\n          \u003c/tr\u003e\n          \u003ctr\u003e\n            \u003ctd\u003e23 Jul 2012\u003c/td\u003e\n            \u003ctd\u003eEve will increase her energy by being more active\u003c/td\u003e\n            \u003ctd\u003eEve will open \u0026quot;The Firm\u0026quot; DVD workout package and listen to it\u003c/td\u003e\n            \u003ctd\u003eDiscontinued\u003c/td\u003e\n            \u003ctd\u003e13 Aug 2012\u003c/td\u003e\n            \u003ctd\u003e7/30/12 Eve will be able to resume exercise on 7/30/12.  8/13/12 -hold until \u0026quot;less busy\u0026quot;\u003c/td\u003e\n          \u003c/tr\u003e\n        \u003c/tbody\u003e\n      \u003c/table\u003e\n    \u003c/div\u003e"},"contained":[{"resourceType":"Condition","id":"p1","clinicalStatus":{"coding":[{"system":"http://terminology.hl7.org/CodeSystem/condition-clinical","code":"active"}]},"verificationStatus":{"coding":[{"system":"http://terminology.hl7.org/CodeSystem/condition-ver-status","code":"confirmed"}]},"code":{"text":"GERDS"},"subject":{"reference":"Patient/1","display":"Eve Everywoman"}},{"resourceType":"Condition","id":"p2","clinicalStatus":{"coding":[{"system":"http://terminology.hl7.org/CodeSystem/condition-clinical","code":"active"}]},"verificationStatus":{"coding":[{"system":"http://terminology.hl7.org/CodeSystem/condition-ver-status","code":"confirmed"}]},"code":{"text":"Obesity"},"subject":{"reference":"Patient/1","display":"Eve Everywoman"}},{"resourceType":"Condition","id":"p3","clinicalStatus":{"coding":[{"system":"http://terminology.hl7.org/CodeSystem/condition-clinical","code":"active"}]},"verificationStatus":{"coding":[{"system":"http://terminology.hl7.org/CodeSystem/condition-ver-status","code":"confirmed"}]},"code":{"text":"Psoriasis"},"subject":{"reference":"Patient/1","display":"Eve Everywoman"}},{"resourceType":"Goal","id":"g1","lifecycleStatus":"active","description":{"text":"Eve will lose weight and reduce her GERDS symptoms by improving her diet"},"subject":{"reference":"Patient/1","display":"Eve Everywoman"}},{"resourceType":"Goal","id":"g2","lifecycleStatus":"active","description":{"text":"Eve will improve her GERDS symptoms"},"subject":{"reference":"Patient/1","display":"Eve Everywoman"}},{"resourceType":"Goal","id":"g3","lifecycleStatus":"active","description":{"text":"Eve will increase her energy by being more active"},"subject":{"reference":"Patient/1","display":"Eve Everywoman"}},{"resourceType":"Goal","id":"g4","lifecycleStatus":"active","description":{"text":"Eve will set up her medications and take as prescribed"},"subject":{"reference":"Patient/1","display":"Eve Everywoman"}},{"resourceType":"Goal","id":"g5","lifecycleStatus":"active","description":{"text":"Eve will restart her light treatments"},"subject":{"reference":"Patient/1","display":"Eve Everywoman"}}],"status":"active","intent":"plan","subject":{"reference":"Patient/1","display":"Eve Everywoman"},"addresses":[{"reference":{"reference":"#p1","display":"GERDS"}},{"reference":{"reference":"#p2","display":"Obesity"}},{"reference":{"reference":"#p3","display":"Psoriasis"}}],"goal":[{"reference":"#g1"},{"reference":"#g2"},{"reference":"#g3"},{"reference":"#g4"},{"reference":"#g5"}],"activity":[{"progress":[{"time":"2012-09-10","text":"Eve eats one meal a day with her parents"}],"plannedActivityReference":{"reference":"ServiceRequest/activity-1"}},{"plannedActivityReference":{"reference":"ServiceRequest/activity-2"}},{"plannedActivityReference":{"reference":"NutritionOrder/activity-3"}},{"progress":[{"time":"2012-08-27","text":"Eve would like to try for 5 days a week."},{"time":"2012-09-10","text":"Eve is still walking the dogs."}],"plannedActivityReference":{"reference":"ServiceRequest/activity-4"}},{"progress":[{"time":"2012-08-13","text":"Eve walked 4 times the last week."},{"time":"2012-09-10","text":"Eve did not walk to her parents the last week, but has plans to start again"}],"plannedActivityReference":{"reference":"ServiceRequest/activity-5"}},{"plannedActivityReference":{"reference":"ServiceRequest/activity-6"}},{"progress":[{"time":"2012-08-13","text":"After restarting the vinegar soaks the psoriasis is improved and Eve plans to treat the remainder with light treatments.  She plans to start this week."},{"time":"2012-08-27","text":"Since her skin is improved Eve has not been using the light treatment as often, maybe once a week.  She would like to increase to 3 times a week again"}],"plannedActivityReference":{"reference":"ServiceRequest/activity-7"}},{"progress":[{"time":"2012-07-23","text":"Eve created a chart as a reminer to take the medications that do not fit in her pill box"}],"plannedActivityReference":{"reference":"ServiceRequest/activity-8"}},{"progress":[{"time":"2012-07-30","text":"Will be able to esume exercise."},{"time":"2012-08-13","text":"Eve prefers to focus on walking at this time"}],"plannedActivityReference":{"reference":"ServiceRequest/activity-9"}},{"plannedActivityReference":{"reference":"ServiceRequest/activity-10"}},{"progress":[{"time":"2012-07-16","text":"Eve now has some of her medications set up in pill packs by her pharmacist"}],"plannedActivityReference":{"reference":"ServiceRequest/activity-11"}},{"progress":[{"time":"2012-07-12","text":"Eve will be able to resume exercise on 7/30/12"},{"time":"2012-08-13","text":"hold until \"less busy\""}],"plannedActivityReference":{"reference":"ServiceRequest/activity-12"}}],"note":[{"text":"Patient family is not ready to commit to goal setting at this time.  Goal setting will be addressed in the future"}]}
{"resourceType":"CarePlan","id":"f003","text":{"status":"generated","div":"\u003cdiv xmlns\u003d\"http://www.w3.org/1999/xhtml\"\u003e\u003cp\u003e\u003cb\u003eGenerated Narrative: CarePlan\u003c/b\u003e\u003ca name\u003d\"f003\"\u003e \u003c/a\u003e\u003c/p\u003e\u003cdiv style\u003d\"display: inline-block; background-color: #d9e0e7; padding: 6px; margin: 4px; border: 1px solid #8da1b4; border-radius: 5px; line-height: 60%\"\u003e\u003cp style\u003d\"margin-bottom: 0px\"\u003eResource CarePlan \u0026quot;f003\u0026quot; \u003c/p\u003e\u003c/div\u003e\u003cp\u003e\u003cb\u003eidentifier\u003c/b\u003e: id: CP3953 (use: OFFICIAL)\u003c/p\u003e\u003cp\u003e\u003cb\u003estatus\u003c/b\u003e: completed\u003c/p\u003e\u003cp\u003e\u003cb\u003eintent\u003c/b\u003e: plan\u003c/p\u003e\u003cp\u003e\u003cb\u003esubject\u003c/b\u003e: \u003ca href\u003d\"patient-example-f001-pieter.html\"\u003ePatient/f001: P. van de Heuvel\u003c/a\u003e \u0026quot;Pieter VAN DE HEUVEL\u0026quot;\u003c/p\u003e\u003cp\u003e\u003cb\u003eperiod\u003c/b\u003e: 2013-03-08T09:00:10+01:00 --\u0026gt; 2013-03-08T09:30:10+01:00\u003c/p\u003e\u003cp\u003e\u003cb\u003ecareTeam\u003c/b\u003e: \u003ca name\u003d\"careteam\"\u003e \u003c/a\u003e\u003c/p\u003e\u003cblockquote\u003e\u003cp/\u003e\u003cp\u003e\u003ca name\u003d\"careteam\"\u003e \u003c/a\u003e\u003c/p\u003e\u003ch3\u003eParticipants\u003c/h3\u003e\u003ctable class\u003d\"grid\"\u003e\u003ctr\u003e\u003ctd style\u003d\"display: none\"\u003e-\u003c/td\u003e\u003ctd\u003e\u003cb\u003eMember\u003c/b\u003e\u003c/td\u003e\u003c/tr\u003e\u003ctr\u003e\u003ctd style\u003d\"display: none\"\u003e*\u003c/td\u003e\u003ctd\u003e\u003ca href\u003d\"practitioner-example-f001-evdb.html\"\u003ePractitioner/f001: E.M. van den broek\u003c/a\u003e \u0026quot;Eric VAN DEN BROEK\u0026quot;\u003c/td\u003e\u003c/tr\u003e\u003c/table\u003e\u003c/blockquote\u003e\u003ch3\u003eAddresses\u003c/h3\u003e\u003ctable class\u003d\"grid\"\u003e\u003ctr\u003e\u003ctd style\u003d\"display: none\"\u003e-\u003c/td\u003e\u003ctd\u003e\u003cb\u003eReference\u003c/b\u003e\u003c/td\u003e\u003c/tr\u003e\u003ctr\u003e\u003ctd style\u003d\"display: none\"\u003e*\u003c/td\u003e\u003ctd\u003e\u003ca href\u003d\"condition-example-f201-fever.html\"\u003eCondition/f201: ?????\u003c/a\u003e\u003c/td\u003e\u003c/tr\u003e\u003c/table\u003e\u003cp\u003e\u003cb\u003egoal\u003c/b\u003e: \u003ca name\u003d\"goal\"\u003e \u003c/a\u003e\u003c/p\u003e\u003cblockquote\u003e\u003cp/\u003e\u003cp\u003e\u003ca name\u003d\"goal\"\u003e \u003c/a\u003e\u003c/p\u003e\u003cp\u003e\u003cb\u003elifecycleStatus\u003c/b\u003e: completed\u003c/p\u003e\u003cp\u003e\u003cb\u003eachievementStatus\u003c/b\u003e: Achieved \u003cspan style\u003d\"background: LightGoldenRodYellow; margin: 4px; border: 1px solid khaki\"\u003e (\u003ca href\u003d\"http://terminology.hl7.org/5.4.0/CodeSystem-goal-achievement.html\"\u003eGoal achievement status\u003c/a\u003e#achieved)\u003c/span\u003e\u003c/p\u003e\u003cp\u003e\u003cb\u003edescription\u003c/b\u003e: Retropharyngeal abscess removal \u003cspan style\u003d\"background: LightGoldenRodYellow; margin: 4px; border: 1px solid khaki\"\u003e ()\u003c/span\u003e\u003c/p\u003e\u003cp\u003e\u003cb\u003esubject\u003c/b\u003e: \u003ca href\u003d\"patient-example-f001-pieter.html\"\u003ePatient/f001: P. van de Heuvel\u003c/a\u003e \u0026quot;Pieter VAN DE HEUVEL\u0026quot;\u003c/p\u003e\u003cp\u003e\u003cb\u003enote\u003c/b\u003e: goal accomplished without complications\u003c/p\u003e\u003c/blockquote\u003e\u003ch3\u003eActivities\u003c/h3\u003e\u003ctable class\u003d\"grid\"\u003e\u003ctr\u003e\u003ctd style\u003d\"display: none\"\u003e-\u003c/td\u003e\u003ctd\u003e\u003cb\u003ePlannedActivityReference\u003c/b\u003e\u003c/td\u003e\u003c/tr\u003e\u003ctr\u003e\u003ctd style\u003d\"display: none\"\u003e*\u003c/td\u003e\u003ctd\u003e\u003ca name\u003d\"activity\"\u003e \u003c/a\u003e\u003cblockquote\u003e\u003cp/\u003e\u003cp\u003e\u003ca name\u003d\"activity\"\u003e \u003c/a\u003e\u003c/p\u003e\u003cp\u003e\u003cb\u003estatus\u003c/b\u003e: completed\u003c/p\u003e\u003cp\u003e\u003cb\u003eintent\u003c/b\u003e: order\u003c/p\u003e\u003ch3\u003eCodes\u003c/h3\u003e\u003ctable class\u003d\"grid\"\u003e\u003ctr\u003e\u003ctd style\u003d\"display: none\"\u003e-\u003c/td\u003e\u003ctd\u003e\u003cb\u003eConcept\u003c/b\u003e\u003c/td\u003e\u003c/tr\u003e\u003ctr\u003e\u003ctd style\u003d\"display: none\"\u003e*\u003c/td\u003e\u003ctd\u003eIncision of retropharyngeal abscess \u003cspan style\u003d\"background: LightGoldenRodYellow; margin: 4px; border: 1px solid khaki\"\u003e (\u003ca href\u003d\"https://browser.ihtsdotools.org/\"\u003eSNOMED CT\u003c/a\u003e#172960003)\u003c/span\u003e\u003c/td\u003e\u003c/tr\u003e\u003c/table\u003e\u003cp\u003e\u003cb\u003esubject\u003c/b\u003e: \u003ca href\u003d\"patient-example-f001-pieter.html\"\u003ePatient/f001: P. van de Heuvel\u003c/a\u003e \u0026quot;Pieter VAN DE HEUVEL\u0026quot;\u003c/p\u003e\u003cp\u003e\u003cb\u003eoccurrence\u003c/b\u003e: 2011-06-27T09:30:10+01:00\u003c/p\u003e\u003cp\u003e\u003cb\u003eperformer\u003c/b\u003e: \u003ca href\u003d\"practitioner-example-f001-evdb.html\"\u003ePractitioner/f001: E.M. van den broek\u003c/a\u003e \u0026quot;Eric VAN DEN BROEK\u0026quot;\u003c/p\u003e\u003c/blockquote\u003e\u003c/td\u003e\u003c/tr\u003e\u003c/table\u003e\u003c/div\u003e"},"contained":[{"resourceType":"CareTeam","id":"careteam","participant":[{"member":{"reference":"Practitioner/f001","display":"E.M. van den broek"}}]},{"resourceType":"Goal","id":"goal","lifecycleStatus":"completed","achievementStatus":{"coding":[{"system":"http://terminology.hl7.org/CodeSystem/goal-achievement","code":"achieved","display":"Achieved"}],"text":"Achieved"},"description":{"text":"Retropharyngeal abscess removal"},"subject":{"reference":"Patient/f001","display":"P. van de Heuvel"},"note":[{"text":"goal accomplished without complications"}]},{"resourceType":"ServiceRequest","id":"activity","status":"completed","intent":"order","code":{"concept":{"coding":[{"system":"http://snomed.info/sct","code":"172960003","display":"Incision of retropharyngeal abscess"}]}},"subject":{"reference":"Patient/f001","display":"P. van de Heuvel"},"occurrenceDateTime":"2011-06-27T09:30:10+01:00","performer":[{"reference":"Practitioner/f001","display":"E.M. van den broek"}]}],"identifier":[{"use":"official","system":"http://www.bmc.nl/zorgportal/identifiers/careplans","value":"CP3953"}],"status":"completed","intent":"plan","subject":{"reference":"Patient/f001","display":"P. van de Heuvel"},"period":{"start":"2013-03-08T09:00:10+01:00","end":"2013-03-08T09:30:10+01:00"},"careTeam":[{"reference":"#careteam"}],"addresses":[{"reference":{"reference":"Condition/f201","display":"?????"}}],"goal":[{"reference":"#goal"}],"activity":[{"plannedActivityReference":{"reference":"#activity"}}]}
{"resourceType":"CarePlan","id":"f001","text":{"status":"generated","div":"\u003cdiv xmlns\u003d\"http://www.w3.org/1999/xhtml\"\u003e\u003cp\u003e\u003cb\u003eGenerated Narrative: CarePlan\u003c/b\u003e\u003ca name\u003d\"f001\"\u003e \u003c/a\u003e\u003c/p\u003e\u003cdiv style\u003d\"display: inline-block; background-color: #d9e0e7; padding: 6px; margin: 4px; border: 1px solid #8da1b4; border-radius: 5px; line-height: 60%\"\u003e\u003cp style\u003d\"margin-bottom: 0px\"\u003eResource CarePlan \u0026quot;f001\u0026quot; \u003c/p\u003e\u003c/div\u003e\u003cp\u003e\u003cb\u003eidentifier\u003c/b\u003e: id: CP2903 (use: OFFICIAL)\u003c/p\u003e\u003cp\u003e\u003cb\u003estatus\u003c/b\u003e: completed\u003c/p\u003e\u003cp\u003e\u003cb\u003eintent\u003c/b\u003e: plan\u003c/p\u003e\u003cp\u003e\u003cb\u003esubject\u003c/b\u003e: \u003ca href\u003d\"patient-example-f001-pieter.html\"\u003ePatient/f001: P. van de Heuvel\u003c/a\u003e \u0026quot;Pieter VAN DE HEUVEL\u0026quot;\u003c/p\u003e\u003cp\u003e\u003cb\u003eperiod\u003c/b\u003e: 2011-06-26 --\u0026gt; 2011-06-27\u003c/p\u003e\u003cp\u003e\u003cb\u003ecareTeam\u003c/b\u003e: \u003ca name\u003d\"careteam\"\u003e \u003c/a\u003e\u003c/p\u003e\u003cblockquote\u003e\u003cp/\u003e\u003cp\u003e\u003ca name\u003d\"careteam\"\u003e \u003c/a\u003e\u003c/p\u003e\u003ch3\u003eParticipants\u003c/h3\u003e\u003ctable class\u003d\"grid\"\u003e\u003ctr\u003e\u003ctd style\u003d\"display: none\"\u003e-\u003c/td\u003e\u003ctd\u003e\u003cb\u003eMember\u003c/b\u003e\u003c/td\u003e\u003c/tr\u003e\u003ctr\u003e\u003ctd style\u003d\"display: none\"\u003e*\u003c/td\u003e\u003ctd\u003e\u003ca href\u003d\"practitioner-example-f002-pv.html\"\u003ePractitioner/f002: P. Voigt\u003c/a\u003e \u0026quot;Pieter VOIGT\u0026quot;\u003c/td\u003e\u003c/tr\u003e\u003c/table\u003e\u003c/blockquote\u003e\u003ch3\u003eAddresses\u003c/h3\u003e\u003ctable class\u003d\"grid\"\u003e\u003ctr\u003e\u003ctd style\u003d\"display: none\"\u003e-\u003c/td\u003e\u003ctd\u003e\u003cb\u003eReference\u003c/b\u003e\u003c/td\u003e\u003c/tr\u003e\u003ctr\u003e\u003ctd style\u003d\"display: none\"\u003e*\u003c/td\u003e\u003ctd\u003e\u003ca href\u003d\"condition-example-f201-fever.html\"\u003eCondition/f201: ?????\u003c/a\u003e\u003c/td\u003e\u003c/tr\u003e\u003c/table\u003e\u003cp\u003e\u003cb\u003egoal\u003c/b\u003e: \u003ca name\u003d\"goal\"\u003e \u003c/a\u003e\u003c/p\u003e\u003cblockquote\u003e\u003cp/\u003e\u003cp\u003e\u003ca name\u003d\"goal\"\u003e \u003c/a\u003e\u003c/p\u003e\u003cp\u003e\u003cb\u003elifecycleStatus\u003c/b\u003e: completed\u003c/p\u003e\u003cp\u003e\u003cb\u003eachievementStatus\u003c/b\u003e: Achieved \u003cspan style\u003d\"background: LightGoldenRodYellow; margin: 4px; border: 1px solid khaki\"\u003e (\u003ca href\u003d\"http://terminology.hl7.org/5.4.0/CodeSystem-goal-achievement.html\"\u003eGoal achievement status\u003c/a\u003e#achieved)\u003c/span\u003e\u003c/p\u003e\u003cp\u003e\u003cb\u003edescription\u003c/b\u003e: recovery surgery on heart of patient \u003cspan style\u003d\"background: LightGoldenRodYellow; margin: 4px; border: 1px solid khaki\"\u003e ()\u003c/span\u003e\u003c/p\u003e\u003cp\u003e\u003cb\u003esubject\u003c/b\u003e: \u003ca href\u003d\"patient-example-f001-pieter.html\"\u003ePatient/f001: P. van de Heuvel\u003c/a\u003e \u0026quot;Pieter VAN DE HEUVEL\u0026quot;\u003c/p\u003e\u003cp\u003e\u003cb\u003enote\u003c/b\u003e: goal accomplished without complications\u003c/p\u003e\u003c/blockquote\u003e\u003ch3\u003eActivities\u003c/h3\u003e\u003ctable class\u003d\"grid\"\u003e\u003ctr\u003e\u003ctd style\u003d\"display: none\"\u003e-\u003c/td\u003e\u003ctd\u003e\u003cb\u003ePlannedActivityReference\u003c/b\u003e\u003c/td\u003e\u003c/tr\u003e\u003ctr\u003e\u003ctd style\u003d\"display: none\"\u003e*\u003c/td\u003e\u003ctd\u003e\u003ca name\u003d\"activity\"\u003e \u003c/a\u003e\u003cblockquote\u003e\u003cp/\u003e\u003cp\u003e\u003ca name\u003d\"activity\"\u003e \u003c/a\u003e\u003c/p\u003e\u003cp\u003e\u003cb\u003estatus\u003c/b\u003e: completed\u003c/p\u003e\u003cp\u003e\u003cb\u003eintent\u003c/b\u003e: order\u003c/p\u003e\u003ch3\u003eCodes\u003c/h3\u003e\u003ctable class\u003d\"grid\"\u003e\u003ctr\u003e\u003ctd style\u003d\"display: none\"\u003e-\u003c/td\u003e\u003ctd\u003e\u003cb\u003eConcept\u003c/b\u003e\u003c/td\u003e\u003c/tr\u003e\u003ctr\u003e\u003ctd style\u003d\"display: none\"\u003e*\u003c/td\u003e\u003ctd\u003eOperation on heart \u003cspan style\u003d\"background: LightGoldenRodYellow; margin: 4px; border: 1px solid khaki\"\u003e (\u003ca href\u003d\"https://browser.ihtsdotools.org/\"\u003eSNOMED CT\u003c/a\u003e#64915003)\u003c/span\u003e\u003c/td\u003e\u003c/tr\u003e\u003c/table\u003e\u003cp\u003e\u003cb\u003esubject\u003c/b\u003e: \u003ca href\u003d\"patient-example-f001-pieter.html\"\u003ePatient/f001: P. van de Heuvel\u003c/a\u003e \u0026quot;Pieter VAN DE HEUVEL\u0026quot;\u003c/p\u003e\u003cp\u003e\u003cb\u003eoccurrence\u003c/b\u003e: 2011-06-27T09:30:10+01:00\u003c/p\u003e\u003cp\u003e\u003cb\u003eperformer\u003c/b\u003e: \u003ca href\u003d\"practitioner-example-f002-pv.html\"\u003ePractitioner/f002: P. Voigt\u003c/a\u003e \u0026quot;Pieter VOIGT\u0026quot;\u003c/p\u003e\u003c/blockquote\u003e\u003c/td\u003e\u003c/tr\u003e\u003c/table\u003e\u003c/div\u003e"},"contained":[{"resourceType":"CareTeam","id":"careteam","participant":[{"member":{"reference":"Practitioner/f002","display":"P. Voigt"}}]},{"resourceType":"Goal","id":"goal","lifecycleStatus":"completed","achievementStatus":{"coding":[{"system":"http://terminology.hl7.org/CodeSystem/goal-achievement","code":"achieved","display":"Achieved"}],"text":"Achieved"},"description":{"text":"recovery surgery on heart of patient"},"subject":{"reference":"Patient/f001","display":"P. van de Heuvel"},"note":[{"text":"goal accomplished without complications"}]},{"resourceType":"ServiceRequest","id":"activity","status":"completed","intent":"order","code":{"concept":{"coding":[{"system":"http://snomed.info/sct","code":"64915003","display":"Operation on heart"}]}},"subject":{"reference":"Patient/f001","display":"P. van de Heuvel"},"occurrenceDateTime":"2011-06-27T09:30:10+01:00","performer":[{"reference":"Practitioner/f002","display":"P. Voigt"}]}],"identifier":[{"use":"official","system":"http://www.bmc.nl/zorgportal/identifiers/careplans","value":"CP2903"}],"status":"completed","intent":"plan","subject":{"reference":"Patient/f001","display":"P. van de Heuvel"},"period":{"start":"2011-06-26","end":"2011-06-27"},"careTeam":[{"reference":"#careteam"}],"addresses":[{"reference":{"reference":"Condition/f201","display":"?????"}}],"goal":[{"reference":"#goal"}],"activity":[{"plannedActivityReference":{"reference":"#activity"}}]}
{"resourceType":"CarePlan","id":"preg","text":{"status":"additional","div":"\u003cdiv xmlns\u003d\"http://www.w3.org/1999/xhtml\"\u003e\n      \u003cp\u003eA maternity care plan (for a pregnant woman).\u003c/p\u003e\n      \u003cp\u003eLMP is 1st Jan, 2013 (a great new years party!) The plan has activities to take prenatal vitamins, schedule first antenatal,\n            and \u0027placeholders\u0027 for the second antenatal and delivery (there would be lots of others of course)\u003c/p\u003e\n      \u003cp\u003eNote that where is a proposed \u0027status\u0027 element against each activity\u003c/p\u003e\n    \u003c/div\u003e"},"contained":[{"resourceType":"Condition","id":"p1","clinicalStatus":{"coding":[{"system":"http://terminology.hl7.org/CodeSystem/condition-clinical","code":"active"}]},"verificationStatus":{"coding":[{"system":"http://terminology.hl7.org/CodeSystem/condition-ver-status","code":"confirmed"}]},"code":{"text":"pregnancy"},"subject":{"reference":"Patient/1","display":"Eve Everywoman"}},{"resourceType":"Practitioner","id":"pr1","name":[{"family":"Midwife","given":["Mavis"]}]},{"resourceType":"Practitioner","id":"pr2","name":[{"family":"Obstetrician","given":["Oscar"]}]},{"resourceType":"CareTeam","id":"careteam","participant":[{"role":{"coding":[{"system":"http://example.org/mysys","code":"lmc"}],"text":"Midwife"},"member":{"reference":"#pr1","display":"Mavis Midwife"}},{"role":{"coding":[{"system":"http://example.org/mysys","code":"obs"}],"text":"Obstretitian"},"member":{"reference":"#pr2","display":"Oscar Obstetrician"}}]},{"resourceType":"Goal","id":"goal","lifecycleStatus":"active","description":{"text":"Maintain patient\u0027s health throughout pregnancy and ensure a healthy child"},"subject":{"reference":"Patient/1","display":"Eve Everywoman"}},{"resourceType":"Appointment","id":"activity-1","status":"booked","description":"The first antenatal encounter. This is where a detailed physical examination is performed and the pregnanacy discussed with the mother-to-be.","start":"2013-02-14T10:38:00+00:00","end":"2013-02-14T10:50:00+00:00","requestedPeriod":[{"start":"2013-02-14","end":"2013-02-28"}],"subject":{"reference":"Patient/1","display":"Eve Everywoman"},"participant":[{"actor":{"reference":"Patient/1","display":"Eve Everywoman"},"required":true,"status":"accepted"},{"type":[{"coding":[{"system":"http://terminology.hl7.org/CodeSystem/v3-ParticipationType","code":"ATND"}]}],"actor":{"reference":"#pr1","display":"Mavis Midwife"},"required":true,"status":"accepted"}]},{"resourceType":"Appointment","id":"activity-2","status":"proposed","description":"The second antenatal encounter. Discuss any issues that arose from the first antenatal encounter","requestedPeriod":[{"start":"2013-03-01","end":"2013-03-14"}],"subject":{"reference":"Patient/1","display":"Eve Everywoman"},"participant":[{"actor":{"reference":"Patient/1","display":"Eve Everywoman"},"required":true,"status":"accepted"},{"type":[{"coding":[{"system":"http://terminology.hl7.org/CodeSystem/v3-ParticipationType","code":"ATND"}]}],"actor":{"reference":"#pr1","display":"Mavis Midwife"},"required":true,"status":"accepted"}]},{"resourceType":"Appointment","id":"activity-3","status":"proposed","description":"The delivery.","requestedPeriod":[{"start":"2013-09-01","end":"2013-09-14"}],"subject":{"reference":"Patient/1","display":"Eve Everywoman"},"participant":[{"actor":{"reference":"Patient/1","display":"Eve Everywoman"},"required":true,"status":"accepted"},{"type":[{"coding":[{"system":"http://terminology.hl7.org/CodeSystem/v3-ParticipationType","code":"ATND"}]}],"actor":{"reference":"#pr1","display":"Mavis Midwife"},"required":true,"status":"accepted"}]}],"extension":[{"url":"http://example.org/fhir/StructureDefinition/careplan#lmp","valueDateTime":"2013-01-01"}],"status":"active","intent":"plan","subject":{"reference":"Patient/1","display":"Eve Everywoman"},"period":{"start":"2013-01-01","end":"2013-10-01"},"careTeam":[{"reference":"#careteam"}],"addresses":[{"reference":{"reference":"#p1","display":"pregnancy"}}],"goal":[{"reference":"#goal"}],"activity":[{"plannedActivityReference":{"display":"Prenatal vitamin MedicationRequest"}},{"extension":[{"url":"http://example.org/fhir/StructureDefinition/careplan#andetails","valueUri":"http://orionhealth.com/fhir/careplan/1andetails"}],"plannedActivityReference":{"reference":"#activity-1"}},{"plannedActivityReference":{"reference":"#activity-2"}},{"plannedActivityReference":{"reference":"#activity-3"}}]}
{"resourceType":"CarePlan","id":"f203","text":{"status":"generated","div":"\u003cdiv xmlns\u003d\"http://www.w3.org/1999/xhtml\"\u003e\u003cp\u003e\u003cb\u003eGenerated Narrative: CarePlan\u003c/b\u003e\u003ca name\u003d\"f203\"\u003e \u003c/a\u003e\u003c/p\u003e\u003cdiv style\u003d\"display: inline-block; background-color: #d9e0e7; padding: 6px; margin: 4px; border: 1px solid #8da1b4; border-radius: 5px; line-height: 60%\"\u003e\u003cp style\u003d\"margin-bottom: 0px\"\u003eResource CarePlan \u0026quot;f203\u0026quot; \u003c/p\u003e\u003c/div\u003e\u003cp\u003e\u003cb\u003estatus\u003c/b\u003e: completed\u003c/p\u003e\u003cp\u003e\u003cb\u003eintent\u003c/b\u003e: plan\u003c/p\u003e\u003cp\u003e\u003cb\u003esubject\u003c/b\u003e: \u003ca href\u003d\"patient-example-f201-roel.html\"\u003ePatient/f201: Roel\u003c/a\u003e \u0026quot;Roel\u0026quot;\u003c/p\u003e\u003cp\u003e\u003cb\u003eperiod\u003c/b\u003e: 2013-04-14 --\u0026gt; 2013-04-21\u003c/p\u003e\u003cp\u003e\u003cb\u003ecareTeam\u003c/b\u003e: \u003ca name\u003d\"careteam\"\u003e \u003c/a\u003e\u003c/p\u003e\u003cblockquote\u003e\u003cp/\u003e\u003cp\u003e\u003ca name\u003d\"careteam\"\u003e \u003c/a\u003e\u003c/p\u003e\u003cblockquote\u003e\u003cp\u003e\u003cb\u003eparticipant\u003c/b\u003e\u003c/p\u003e\u003cp\u003e\u003cb\u003erole\u003c/b\u003e: Review of care plan \u003cspan style\u003d\"background: LightGoldenRodYellow; margin: 4px; border: 1px solid khaki\"\u003e (\u003ca href\u003d\"https://browser.ihtsdotools.org/\"\u003eSNOMED CT\u003c/a\u003e#425268008)\u003c/span\u003e\u003c/p\u003e\u003cp\u003e\u003cb\u003emember\u003c/b\u003e: \u003ca href\u003d\"practitioner-example-f201-ab.html\"\u003ePractitioner/f201: Dokter Bronsig\u003c/a\u003e \u0026quot;Dokter Bronsig\u0026quot;\u003c/p\u003e\u003c/blockquote\u003e\u003cblockquote\u003e\u003cp\u003e\u003cb\u003eparticipant\u003c/b\u003e\u003c/p\u003e\u003cp\u003e\u003cb\u003erole\u003c/b\u003e: Radiographic imaging \u003cspan style\u003d\"background: LightGoldenRodYellow; margin: 4px; border: 1px solid khaki\"\u003e (\u003ca href\u003d\"https://browser.ihtsdotools.org/\"\u003eSNOMED CT\u003c/a\u003e#278110001)\u003c/span\u003e\u003c/p\u003e\u003cp\u003e\u003cb\u003emember\u003c/b\u003e: \u003ca href\u003d\"practitioner-example-f202-lm.html\"\u003ePractitioner/f202: Luigi Maas\u003c/a\u003e \u0026quot;Luigi Maas\u0026quot;\u003c/p\u003e\u003c/blockquote\u003e\u003c/blockquote\u003e\u003ch3\u003eAddresses\u003c/h3\u003e\u003ctable class\u003d\"grid\"\u003e\u003ctr\u003e\u003ctd style\u003d\"display: none\"\u003e-\u003c/td\u003e\u003ctd\u003e\u003cb\u003eReference\u003c/b\u003e\u003c/td\u003e\u003c/tr\u003e\u003ctr\u003e\u003ctd style\u003d\"display: none\"\u003e*\u003c/td\u003e\u003ctd\u003e\u003ca href\u003d\"condition-example-f203-sepsis.html\"\u003eCondition/f203: Roel\u0027s sepsis\u003c/a\u003e\u003c/td\u003e\u003c/tr\u003e\u003c/table\u003e\u003cp\u003e\u003cb\u003egoal\u003c/b\u003e: \u003ca name\u003d\"goal\"\u003e \u003c/a\u003e\u003c/p\u003e\u003cblockquote\u003e\u003cp/\u003e\u003cp\u003e\u003ca name\u003d\"goal\"\u003e \u003c/a\u003e\u003c/p\u003e\u003cp\u003e\u003cb\u003elifecycleStatus\u003c/b\u003e: cancelled\u003c/p\u003e\u003cp\u003e\u003cb\u003edescription\u003c/b\u003e: Check whether further treatment of sepsis/pulmonary abcess is required \u003cspan style\u003d\"background: LightGoldenRodYellow; margin: 4px; border: 1px solid khaki\"\u003e ()\u003c/span\u003e\u003c/p\u003e\u003cp\u003e\u003cb\u003esubject\u003c/b\u003e: \u003ca href\u003d\"patient-example-f201-roel.html\"\u003ePatient/f201: Roel\u003c/a\u003e \u0026quot;Roel\u0026quot;\u003c/p\u003e\u003c/blockquote\u003e\u003ch3\u003eActivities\u003c/h3\u003e\u003ctable class\u003d\"grid\"\u003e\u003ctr\u003e\u003ctd style\u003d\"display: none\"\u003e-\u003c/td\u003e\u003ctd\u003e\u003cb\u003ePlannedActivityReference\u003c/b\u003e\u003c/td\u003e\u003c/tr\u003e\u003ctr\u003e\u003ctd style\u003d\"display: none\"\u003e*\u003c/td\u003e\u003ctd\u003e\u003ca name\u003d\"activity\"\u003e \u003c/a\u003e\u003cblockquote\u003e\u003cp/\u003e\u003cp\u003e\u003ca name\u003d\"activity\"\u003e \u003c/a\u003e\u003c/p\u003e\u003cp\u003e\u003cb\u003estatus\u003c/b\u003e: active\u003c/p\u003e\u003cp\u003e\u003cb\u003eintent\u003c/b\u003e: order\u003c/p\u003e\u003cp\u003e\u003cb\u003edoNotPerform\u003c/b\u003e: false\u003c/p\u003e\u003ch3\u003eCodes\u003c/h3\u003e\u003ctable class\u003d\"grid\"\u003e\u003ctr\u003e\u003ctd style\u003d\"display: none\"\u003e-\u003c/td\u003e\u003ctd\u003e\u003cb\u003eConcept\u003c/b\u003e\u003c/td\u003e\u003c/tr\u003e\u003ctr\u003e\u003ctd style\u003d\"display: none\"\u003e*\u003c/td\u003e\u003ctd\u003eHigh resolution computed tomography of lungs \u003cspan style\u003d\"background: LightGoldenRodYellow; margin: 4px; border: 1px solid khaki\"\u003e (\u003ca href\u003d\"https://browser.ihtsdotools.org/\"\u003eSNOMED CT\u003c/a\u003e#241541005)\u003c/span\u003e\u003c/td\u003e\u003c/tr\u003e\u003c/table\u003e\u003cp\u003e\u003cb\u003esubject\u003c/b\u003e: \u003ca href\u003d\"patient-example-f201-roel.html\"\u003ePatient/f201: Roel\u003c/a\u003e \u0026quot;Roel\u0026quot;\u003c/p\u003e\u003c/blockquote\u003e\u003c/td\u003e\u003c/tr\u003e\u003c/table\u003e\u003c/div\u003e"},"contained":[{"resourceType":"CareTeam","id":"careteam","participant":[{"role":{"coding":[{"system":"http://snomed.info/sct","code":"425268008","display":"Review of care plan"}]},"member":{"reference":"Practitioner/f201","display":"Dokter Bronsig"}},{"role":{"coding":[{"system":"http://snomed.info/sct","code":"278110001","display":"Radiographic imaging"}]},"member":{"reference":"Practitioner/f202","display":"Luigi Maas"}}]},{"resourceType":"Goal","id":"goal","lifecycleStatus":"cancelled","description":{"text":"Check whether further treatment of sepsis/pulmonary abcess is required"},"subject":{"reference":"Patient/f201","display":"Roel"}},{"resourceType":"ServiceRequest","id":"activity","status":"active","intent":"order","doNotPerform":false,"code":{"concept":{"coding":[{"system":"http://snomed.info/sct","code":"241541005","display":"High resolution computed tomography of lungs"}]}},"subject":{"reference":"Patient/f201","display":"Roel"}}],"status":"completed","intent":"plan","subject":{"reference":"Patient/f201","display":"Roel"},"period":{"start":"2013-04-14","end":"2013-04-21"},"careTeam":[{"reference":"#careteam"}],"addresses":[{"reference":{"reference":"Condition/f203","display":"Roel\u0027s sepsis"}}],"goal":[{"reference":"#goal"}],"activity":[{"plannedActivityReference":{"reference":"#activity"}}]}