{"resourceType":"CarePlan","id":"f201","text":{"status":"generated","div":"<div xmlns=\"http://www.w3.org/1999/xhtml\"><p><b>Generated Narrative: CarePlan</b><a name=\"f201\"> </a></p><div style=\"display: inline-block; background-color: #d9e0e7; padding: 6px; margin: 4px; border: 1px solid #8da1b4; border-radius: 5px; line-height: 60%\"><p style=\"margin-bottom: 0px\">Resource CarePlan &quot;f201&quot; </p></div><p><b>status</b>: draft</p><p><b>intent</b>: proposal</p><p><b>subject</b>: <span title=\" This careplan is &quot;ended&quot;, but was never closed in the EHR, wherefore the status is &quot;planned&quot; \"><a href=\"patient-example-f201-roel.html\">Patient/f201: Roel</a> &quot;Roel&quot;</span></p><p><b>period</b>: 2013-03-11 --&gt; 2013-03-13</p><p><b>careTeam</b>: <a name=\"careteam\"> </a></p><blockquote><p/><p><a name=\"careteam\"> </a></p><blockquote><p><b>participant</b></p><p><b>role</b>: Review of care plan <span style=\"background: LightGoldenRodYellow; margin: 4px; border: 1px solid khaki\"> (<a href=\"https://browser.ihtsdotools.org/\">SNOMED CT</a>#425268008)</span></p><p><b>member</b>: <a href=\"practitioner-example-f201-ab.html\">Practitioner/f201: Dokter Bronsig</a> &quot;Dokter Bronsig&quot;</p></blockquote><blockquote><p><b>participant</b></p><p><b>role</b>: Carer <span style=\"background: LightGoldenRodYellow; margin: 4px; border: 1px solid khaki\"> (<a href=\"https://browser.ihtsdotools.org/\">SNOMED CT</a>#229774002)</span></p><p><b>member</b>: <a href=\"practitioner-example-f204-ce.html\">Practitioner/f204: Nurse Carla Espinosa</a> &quot;Carla Espinosa&quot;</p></blockquote></blockquote><h3>Addresses</h3><table class=\"grid\"><tr><td>-</td><td><b>Reference</b></td></tr><tr><td>*</td><td><a href=\"condition-example-f204-renal.html\">Condition/f204: Roel's renal insufficiency</a></td></tr></table><p><b>goal</b>: <a name=\"goal\"> </a></p><blockquote><p/><p><a name=\"goal\"> </a></p><p><b>lifecycleStatus</b>: completed</p><p><b>achievementStatus</b>: Achieved <span style=\"background: LightGoldenRodYellow; margin: 4px; border: 1px solid khaki\"> (<a href=\"http://terminology.hl7.org/5.1.0/CodeSystem-goal-achievement.html\">Goal achievement status</a>#achieved)</span></p><p><b>description</b>: Re-established renal function with at least healthy nutrients. <span style=\"background: LightGoldenRodYellow; margin: 4px; border: 1px solid khaki\"> ()</span></p><p><b>subject</b>: <a href=\"patient-example-f201-roel.html\">Patient/f201: Roel</a> &quot;Roel&quot;</p></blockquote><blockquote><p><b>activity</b></p><p><b>plannedActivityReference</b>: <span title=\" Potassium supplement \"><a href=\"nutritionorder-example-renaldiet.html\">NutritionOrder/renaldiet</a></span></p></blockquote><blockquote><p><b>activity</b></p><p><b>plannedActivityReference</b>: <span title=\" Echo of the kidney \"><a name=\"activity\"> </a></span></p><blockquote><p/><p><a name=\"activity\"> </a></p><p><b>status</b>: completed</p><p><b>intent</b>: order</p><h3>Codes</h3><table class=\"grid\"><tr><td>-</td><td><b>Concept</b></td></tr><tr><td>*</td><td>Echography of kidney <span style=\"background: LightGoldenRodYellow; margin: 4px; border: 1px solid khaki\"> (<a href=\"https://browser.ihtsdotools.org/\">SNOMED CT</a>#306005)</span></td></tr></table><p><b>subject</b>: <a href=\"patient-example-f201-roel.html\">Patient/f201: Roel</a> &quot;Roel&quot;</p></blockquote></blockquote></div>"},"contained":[{"resourceType":"CareTeam","id":"careteam","participant":[{"role":{"coding":[{"system":"http://snomed.info/sct","code":"425268008","display":"Review of care plan"}]},"member":{"reference":"Practitioner/f201","display":"Dokter Bronsig"}},{"role":{"coding":[{"system":"http://snomed.info/sct","code":"229774002","display":"Carer"}]},"member":{"reference":"Practitioner/f204","display":"Nurse Carla Espinosa"}}]},{"resourceType":"Goal","id":"goal","lifecycleStatus":"completed","achievementStatus":{"coding":[{"system":"http://terminology.hl7.org/CodeSystem/goal-achievement","code":"achieved","display":"Achieved"}],"text":"Achieved"},"description":{"text":"Re-established renal function with at least healthy nutrients."},"subject":{"reference":"Patient/f201","display":"Roel"}},{"resourceType":"ServiceRequest","id":"activity","status":"completed","intent":"order","code":{"concept":{"coding":[{"system":"http://snomed.info/sct","code":"306005","display":"Echography of kidney"}]}},"subject":{"reference":"Patient/f201","display":"Roel"}}],"status":"draft","intent":"proposal","subject":{"reference":"Patient/f201","display":"Roel"},"period":{"start":"2013-03-11","end":"2013-03-13"},"careTeam":[{"reference":"#careteam"}],"addresses":[{"reference":{"reference":"Condition/f204","display":"Roel's renal insufficiency"}}],"goal":[{"reference":"#goal"}],"activity":[{"plannedActivityReference":{"reference":"NutritionOrder/renaldiet"}},{"plannedActivityReference":{"reference":"#activity"}}]}