{"resourceType":"CarePlan","id":"f003","text":{"status":"generated","div":"<div xmlns=\"http://www.w3.org/1999/xhtml\"><p><b>Generated Narrative: CarePlan</b><a name=\"f003\"> </a></p><div style=\"display: inline-block; background-color: #d9e0e7; padding: 6px; margin: 4px; border: 1px solid #8da1b4; border-radius: 5px; line-height: 60%\"><p style=\"margin-bottom: 0px\">Resource CarePlan &quot;f003&quot; </p></div><p><b>identifier</b>: id: CP3953 (use: OFFICIAL)</p><p><b>status</b>: completed</p><p><b>intent</b>: plan</p><p><b>subject</b>: <a href=\"patient-example-f001-pieter.html\">Patient/f001: P. van de Heuvel</a> &quot;Pieter VAN DE HEUVEL&quot;</p><p><b>period</b>: 2013-03-08T09:00:10+01:00 --&gt; 2013-03-08T09:30:10+01:00</p><p><b>careTeam</b>: <a name=\"careteam\"> </a></p><blockquote><p/><p><a name=\"careteam\"> </a></p><h3>Participants</h3><table class=\"grid\"><tr><td>-</td><td><b>Member</b></td></tr><tr><td>*</td><td><a href=\"practitioner-example-f001-evdb.html\">Practitioner/f001: E.M. van den broek</a> &quot;Eric VAN DEN BROEK&quot;</td></tr></table></blockquote><h3>Addresses</h3><table class=\"grid\"><tr><td>-</td><td><b>Reference</b></td></tr><tr><td>*</td><td><a href=\"condition-example-f201-fever.html\">Condition/f201: ?????</a></td></tr></table><p><b>goal</b>: <a name=\"goal\"> </a></p><blockquote><p/><p><a name=\"goal\"> </a></p><p><b>lifecycleStatus</b>: completed</p><p><b>achievementStatus</b>: Achieved <span style=\"background: LightGoldenRodYellow; margin: 4px; border: 1px solid khaki\"> (<a href=\"http://terminology.hl7.org/5.1.0/CodeSystem-goal-achievement.html\">Goal achievement status</a>#achieved)</span></p><p><b>description</b>: Retropharyngeal abscess removal <span style=\"background: LightGoldenRodYellow; margin: 4px; border: 1px solid khaki\"> ()</span></p><p><b>subject</b>: <a href=\"patient-example-f001-pieter.html\">Patient/f001: P. van de Heuvel</a> &quot;Pieter VAN DE HEUVEL&quot;</p><p><b>note</b>: goal accomplished without complications</p></blockquote><h3>Activities</h3><table class=\"grid\"><tr><td>-</td><td><b>PlannedActivityReference</b></td></tr><tr><td>*</td><td><a name=\"activity\"> </a><blockquote><p/><p><a name=\"activity\"> </a></p><p><b>status</b>: completed</p><p><b>intent</b>: order</p><h3>Codes</h3><table class=\"grid\"><tr><td>-</td><td><b>Concept</b></td></tr><tr><td>*</td><td>Incision of retropharyngeal abscess <span style=\"background: LightGoldenRodYellow; margin: 4px; border: 1px solid khaki\"> (<a href=\"https://browser.ihtsdotools.org/\">SNOMED CT</a>#172960003)</span></td></tr></table><p><b>subject</b>: <a href=\"patient-example-f001-pieter.html\">Patient/f001: P. van de Heuvel</a> &quot;Pieter VAN DE HEUVEL&quot;</p><p><b>occurrence</b>: 2011-06-27T09:30:10+01:00</p><p><b>performer</b>: <a href=\"practitioner-example-f001-evdb.html\">Practitioner/f001: E.M. van den broek</a> &quot;Eric VAN DEN BROEK&quot;</p></blockquote></td></tr></table></div>"},"contained":[{"resourceType":"CareTeam","id":"careteam","participant":[{"member":{"reference":"Practitioner/f001","display":"E.M. van den broek"}}]},{"resourceType":"Goal","id":"goal","lifecycleStatus":"completed","achievementStatus":{"coding":[{"system":"http://terminology.hl7.org/CodeSystem/goal-achievement","code":"achieved","display":"Achieved"}],"text":"Achieved"},"description":{"text":"Retropharyngeal abscess removal"},"subject":{"reference":"Patient/f001","display":"P. van de Heuvel"},"note":[{"text":"goal accomplished without complications"}]},{"resourceType":"ServiceRequest","id":"activity","status":"completed","intent":"order","code":{"concept":{"coding":[{"system":"http://snomed.info/sct","code":"172960003","display":"Incision of retropharyngeal abscess"}]}},"subject":{"reference":"Patient/f001","display":"P. van de Heuvel"},"occurrenceDateTime":"2011-06-27T09:30:10+01:00","performer":[{"reference":"Practitioner/f001","display":"E.M. van den broek"}]}],"identifier":[{"use":"official","system":"http://www.bmc.nl/zorgportal/identifiers/careplans","value":"CP3953"}],"status":"completed","intent":"plan","subject":{"reference":"Patient/f001","display":"P. van de Heuvel"},"period":{"start":"2013-03-08T09:00:10+01:00","end":"2013-03-08T09:30:10+01:00"},"careTeam":[{"reference":"#careteam"}],"addresses":[{"reference":{"reference":"Condition/f201","display":"?????"}}],"goal":[{"reference":"#goal"}],"activity":[{"plannedActivityReference":{"reference":"#activity"}}]}