{"resourceType":"MedicinalProductDefinition","id":"drug-and-device-complete","text":{"status":"generated","div":"<div xmlns=\"http://www.w3.org/1999/xhtml\">\n\t\t\t<p>\n\t\t\t\t<b>\n\t\t\t\t\tGenerated Narrative\n\t\t\t\t</b>\n\t\t\t</p>\n\t\t\t<p>\n\t\t\t\t<b>\n\t\t\t\t\tid\n\t\t\t\t</b>\n\t\t\t\t: drug-and-device\n\t\t\t</p>\n\t\t\t<p>\n\t\t\t\t<b>\n\t\t\t\t\tidentifier\n\t\t\t\t</b>\n\t\t\t\t: id: Wonderdrug+\n\t\t\t</p>\n\t\t\t<p>\n\t\t\t\t<b>\n\t\t\t\t\tCombined Pharmaceutical Dose Form\n\t\t\t\t</b>\n\t\t\t\t:\n\t\t\t\t<span title=\"Codes: {http://example.org.uk/fhir/doseform solution for injection}\">\n\t\t\t\t\tsolution for injection\n\t\t\t\t</span>\n\t\t\t</p>\n\t\t\t<p>\n\t\t\t\t<b>\n\t\t\t\t\tPackaged Product\n\t\t\t\t</b>\n\t\t\t\t:\n\t\t\t\t<a name=\"package\"/>\n\t\t\t</p>\n\t\t\t<blockquote>\n\t\t\t\t<p>\n\t\t\t\t\t<b>\n\t\t\t\t\t\tpackage\n\t\t\t\t\t</b>\n\t\t\t\t</p>\n\t\t\t\t<blockquote>\n\t\t\t\t\t<p>\n\t\t\t\t\t\t<b>\n\t\t\t\t\t\t\tBox\n\t\t\t\t\t\t</b>\n\t\t\t\t\t</p>\n\t\t\t\t\t<blockquote>\n\t\t\t\t\t\t<p>\n\t\t\t\t\t\t\t<b>\n\t\t\t\t\t\t\t\tInner box for Powder and Solution\n\t\t\t\t\t\t\t</b>\n\t\t\t\t\t\t</p>\n\t\t\t\t\t\t<blockquote>\n\t\t\t\t\t\t\t<p>\n\t\t\t\t\t\t\t\t<b>\n\t\t\t\t\t\t\t\t\tSachet\n\t\t\t\t\t\t\t\t</b>\n\t\t\t\t\t\t\t</p>\n\t\t\t\t\t\t\t<blockquote>\n\t\t\t\t\t\t\t\t<p>\n\t\t\t\t\t\t\t\t\t<b>\n\t\t\t\t\t\t\t\t\t\tItem\n\t\t\t\t\t\t\t\t\t</b>\n\t\t\t\t\t\t\t\t\t:\n\t\t\t\t\t\t\t\t\t<a href=\"#liquidItem\">\n\t\t\t\t\t\t\t\t\t\tPowder for Solution for Injection\n\t\t\t\t\t\t\t\t\t</a>\n\t\t\t\t\t\t\t\t</p>\n\t\t\t\t\t\t\t\t<p>\n\t\t\t\t\t\t\t\t\t<b>\n\t\t\t\t\t\t\t\t\t\tAmount\n\t\t\t\t\t\t\t\t\t</b>\n\t\t\t\t\t\t\t\t\t: 5 mg\n\t\t\t\t\t\t\t\t</p>\n\t\t\t\t\t\t\t\t<p>\n\t\t\t\t\t\t\t\t\t<b>\n\t\t\t\t\t\t\t\t\t\tIngredient\n\t\t\t\t\t\t\t\t\t</b>\n\t\t\t\t\t\t\t\t\t: Wondersubstance\n\t\t\t\t\t\t\t\t</p>\n\t\t\t\t\t\t\t</blockquote>\n\t\t\t\t\t\t</blockquote>\n\t\t\t\t\t\t<blockquote>\n\t\t\t\t\t\t\t<p>\n\t\t\t\t\t\t\t\t<b>\n\t\t\t\t\t\t\t\t\tBottle\n\t\t\t\t\t\t\t\t</b>\n\t\t\t\t\t\t\t</p>\n\t\t\t\t\t\t\t<blockquote>\n\t\t\t\t\t\t\t\t<p>\n\t\t\t\t\t\t\t\t\t<b>\n\t\t\t\t\t\t\t\t\t\tItem\n\t\t\t\t\t\t\t\t\t</b>\n\t\t\t\t\t\t\t\t\t:\n\t\t\t\t\t\t\t\t\t<a href=\"#liquidItem\">\n\t\t\t\t\t\t\t\t\t\tSolvent\n\t\t\t\t\t\t\t\t\t</a>\n\t\t\t\t\t\t\t\t</p>\n\t\t\t\t\t\t\t\t<p>\n\t\t\t\t\t\t\t\t\t<b>\n\t\t\t\t\t\t\t\t\t\tAmount\n\t\t\t\t\t\t\t\t\t</b>\n\t\t\t\t\t\t\t\t\t: 20 ml\n\t\t\t\t\t\t\t\t</p>\n\t\t\t\t\t\t\t\t<p>\n\t\t\t\t\t\t\t\t\t<b>\n\t\t\t\t\t\t\t\t\t\tIngredient\n\t\t\t\t\t\t\t\t\t</b>\n\t\t\t\t\t\t\t\t\t: Distilled Water\n\t\t\t\t\t\t\t\t</p>\n\t\t\t\t\t\t\t</blockquote>\n\t\t\t\t\t\t</blockquote>\n\t\t\t\t\t</blockquote>\n\t\t\t\t\t<blockquote>\n\t\t\t\t\t\t<p>\n\t\t\t\t\t\t\t<b>\n\t\t\t\t\t\t\t\tFoil bag\n\t\t\t\t\t\t\t</b>\n\t\t\t\t\t\t</p>\n\t\t\t\t\t\t<blockquote>\n\t\t\t\t\t\t\t<p>\n\t\t\t\t\t\t\t\t<b>\n\t\t\t\t\t\t\t\t\tDevice\n\t\t\t\t\t\t\t\t</b>\n\t\t\t\t\t\t\t\t:\n\t\t\t\t\t\t\t\t<a href=\"#syringeDevice\">\n\t\t\t\t\t\t\t\t\tSyringe\n\t\t\t\t\t\t\t\t</a>\n\t\t\t\t\t\t\t</p>\n\t\t\t\t\t\t\t<p>\n\t\t\t\t\t\t\t\t<b>\n\t\t\t\t\t\t\t\t\tamount\n\t\t\t\t\t\t\t\t</b>\n\t\t\t\t\t\t\t\t: 1\n\t\t\t\t\t\t\t</p>\n\t\t\t\t\t\t</blockquote>\n\t\t\t\t\t</blockquote>\n\t\t\t\t</blockquote>\n\t\t\t</blockquote>\n\t\t\t<p>\n\t\t\t\t<b>\n\t\t\t\t\tAdministrable Product\n\t\t\t\t</b>\n\t\t\t\t:\n\t\t\t</p>\n\t\t\t<blockquote>\n\t\t\t\t<p>\n\t\t\t\t\tWonderdrug, dose form: Solution For Injection\n\t\t\t\t</p>\n\t\t\t</blockquote>\n\t\t\t<h3>\n\t\t\t\tNames\n\t\t\t</h3>\n\t\t\t<table class=\"grid\">\n\t\t\t\t<tr>\n\t\t\t\t\t<td>\n\t\t\t\t\t\t-\n\t\t\t\t\t</td>\n\t\t\t\t\t<td>\n\t\t\t\t\t\t<b>\n\t\t\t\t\t\t\tProduct Name\n\t\t\t\t\t\t</b>\n\t\t\t\t\t</td>\n\t\t\t\t</tr>\n\t\t\t\t<tr>\n\t\t\t\t\t<td>\n\t\t\t\t\t\t*\n\t\t\t\t\t</td>\n\t\t\t\t\t<td>\n\t\t\t\t\t\tWonderdrug+ liquid 20ml\n\t\t\t\t\t</td>\n\t\t\t\t</tr>\n\t\t\t</table>\n\t\t</div>"},"contained":[{"resourceType":"PackagedProductDefinition","id":"package","packageFor":[{"reference":"#"}],"packaging":{"packaging":[{"type":{"coding":[{"code":"cardboard box (outer)"}]},"packaging":[{"type":{"coding":[{"code":"cardboard box (inner)"}]},"packaging":[{"type":{"coding":[{"code":"sachet"}]},"containedItem":[{"item":{"reference":{"reference":"#powderItem"}},"amount":{"value":5,"unit":"g","system":"http://unitsofmeasure.org","code":"g"}}]},{"type":{"coding":[{"code":"bottle"}]},"containedItem":[{"item":{"reference":{"reference":"#solventItem"}},"amount":{"value":20,"unit":"ml","system":"http://unitsofmeasure.org","code":"mL"}}]}]},{"type":{"coding":[{"code":"foil bag"}]},"containedItem":[{"item":{"reference":{"reference":"#syringeDevice"}},"amount":{"value":1}}]}]}]}},{"resourceType":"ManufacturedItemDefinition","id":"solventItem","status":"active","manufacturedDoseForm":{"coding":[{"system":"http://example.org.uk/fhir/doseform","code":"solvent for powder for injection"}]}},{"resourceType":"ManufacturedItemDefinition","id":"powderItem","status":"active","manufacturedDoseForm":{"coding":[{"system":"http://example.org.uk/fhir/doseform","code":"powder for solution for injection"}]}},{"resourceType":"DeviceDefinition","id":"syringeDevice","classification":[{"type":{"text":"syringe"}}]},{"resourceType":"AdministrableProductDefinition","id":"administrable-form","status":"active","formOf":[{"reference":"#"}],"administrableDoseForm":{"coding":[{"code":"solution for injection"}]},"producedFrom":[{"reference":"#powderItem"},{"reference":"#solventItem"}],"routeOfAdministration":[{"code":{"coding":[{"system":"http://example.org.uk/fhir/route","code":"intramuscular"}]}}]}],"identifier":[{"system":"http://example.org.uk/fhir/product","value":"Wonderdrug+"}],"combinedPharmaceuticalDoseForm":{"coding":[{"system":"http://example.org.uk/fhir/doseform","code":"Powder and solution for injection with itegral syringe"}]},"name":[{"productName":"Wonderdrug liquid 20ml (integral syringe)"}]}